,time, accelX_x, accelY_x, accelZ_x, gyrX_x, gyrY_x, gyrZ_x, magX_x, magY_x, magZ_x, temp_x, accelX_y, accelY_y, accelZ_y, gyrX_y, gyrY_y, gyrZ_y, magX_y, magY_y, magZ_y, temp_y, temperature, accelX, accelY, accelZ, gyrX, gyrY, gyrZ, lat, lon, altMSL, altEllipsoid, velN, velE, velD, epochTime, satellites, gpsLockType,pressure
0,1183.0,0.007324,-0.032715,0.991699,-0.001064,0.005321,-0.036184,118.199997,31.5,15.15,209.097168,0.007324,-0.032715,0.991699,-0.001064,0.005321,-0.036184,118.199997,31.5,15.15,209.097168,10.43,0.049,-0.017,1.017,-0.7,-1.19,1.12,108.399345,88.665802,-433880.96875,-63131.265625,384025144.0,338424810.0,102846770.0,796635692.0,81.0,19.0,100228.0
1,2235.526336633663,0.007160208316831683,-0.033044710495049506,0.9911743635643564,-0.0010513556435643564,0.0053294297029702975,-0.03619411524752476,118.18793759524752,31.508673268118812,15.14310891089109,209.02665973425744,0.007160208316831683,-0.033044710495049506,0.9911743635643564,-0.0010513556435643564,0.0053294297029702975,-0.03619411524752476,118.18793759524752,31.508673268118812,15.14310891089109,209.02665973425744,10.437271287524752,0.048829306930693074,-0.017335841584158417,1.0164843564356434,-0.6992514851485148,-1.189528712871287,1.1201386138613862,108.35641456633662,88.6306868308911,-433709.14143564354,-63106.263143564356,383873054.8340594,338290780.3722772,102806038.6059406,797018503.5813861,80.96792079207921,18.99247524752475,100221.0
2,3288.0526732673266,0.006996416633663366,-0.03337442099009901,0.9906497271287129,-0.0010387112871287128,0.005337859405940594,-0.036204230495049505,118.17587819049504,31.517346536237625,15.136217821782179,208.95615146851486,0.006996416633663366,-0.03337442099009901,0.9906497271287129,-0.0010387112871287128,0.005337859405940594,-0.036204230495049505,118.17587819049504,31.517346536237625,15.136217821782179,208.95615146851486,10.444542575049505,0.04865861386138614,-0.017671683168316833,1.015968712871287,-0.6985029702970297,-1.1890574257425741,1.1202772277227724,108.31348413267327,88.59557166178217,-433537.31412128714,-63081.26066212871,383720965.66811883,338156750.74455446,102765307.21188119,797401315.1627723,80.93584158415841,18.984950495049507,100229.0
3,4340.57900990099,0.00683262495049505,-0.03370413148514852,0.9901250906930693,-0.0010260669306930694,0.005346289108910891,-0.03621434574257426,118.16381878574256,31.526019804356437,15.129326732673269,208.8856432027723,0.00683262495049505,-0.03370413148514852,0.9901250906930693,-0.0010260669306930694,0.005346289108910891,-0.03621434574257426,118.16381878574256,31.526019804356437,15.129326732673269,208.8856432027723,10.451813862574257,0.04848792079207921,-0.01800752475247525,1.0154530693069306,-0.6977544554455445,-1.1885861386138614,1.1204158415841585,108.2705536990099,88.56045649267327,-433365.4868069307,-63056.25818069307,383568876.5021782,338022721.11683166,102724575.81782179,797784126.7441584,80.90376237623762,18.97742574257426,100224.0
4,5393.105346534653,0.006668833267326733,-0.03403384198019802,0.9896004542574257,-0.0010134225742574258,0.005354718811881189,-0.03622446099009901,118.1517593809901,31.534693072475246,15.122435643564357,208.8151349370297,0.006668833267326733,-0.03403384198019802,0.9896004542574257,-0.0010134225742574258,0.005354718811881189,-0.03622446099009901,118.1517593809901,31.534693072475246,15.122435643564357,208.8151349370297,10.459085150099009,0.04831722772277228,-0.018343366336633665,1.014937425742574,-0.6970059405940594,-1.1881148514851485,1.1205544554455447,108.22762326534654,88.52534132356436,-433193.6594925743,-63031.255699257425,383416787.3362376,337888691.4891089,102683844.42376238,798166938.3255446,80.87168316831684,18.96990099009901,100208.0
5,6445.631683168316,0.006505041584158416,-0.03436355247524753,0.9890758178217822,-0.0010007782178217822,0.005363148514851485,-0.036234576237623765,118.13969997623762,31.54336634059406,15.115544554455447,208.74462667128714,0.006505041584158416,-0.03436355247524753,0.9890758178217822,-0.0010007782178217822,0.005363148514851485,-0.036234576237623765,118.13969997623762,31.54336634059406,15.115544554455447,208.74462667128714,10.466356437623762,0.04814653465346535,-0.01867920792079208,1.0144217821782178,-0.6962574257425742,-1.1876435643564356,1.1206930693069308,108.18469283168317,88.49022615445544,-433021.8321782178,-63006.25321782178,383264698.170297,337754661.8613861,102643113.02970298,798549749.9069307,80.83960396039603,18.96237623762376,100224.0
6,7498.15801980198,0.006341249900990099,-0.03469326297029703,0.9885511813861386,-0.0009881338613861386,0.005371578217821782,-0.036244691485148514,118.12764057148514,31.55203960871287,15.108653465346535,208.67411840554456,0.006341249900990099,-0.03469326297029703,0.9885511813861386,-0.0009881338613861386,0.005371578217821782,-0.036244691485148514,118.12764057148514,31.55203960871287,15.108653465346535,208.67411840554456,10.473627725148514,0.04797584158415842,-0.019015049504950497,1.0139061386138613,-0.695508910891089,-1.1871722772277227,1.120831683168317,108.1417623980198,88.45511098534654,-432850.00486386137,-62981.25073638614,383112609.00435644,337620632.2336634,102602381.63564357,798932561.4883168,80.80752475247525,18.954851485148517,100219.0
7,8550.684356435642,0.006177458217821782,-0.03502297346534654,0.988026544950495,-0.0009754895049504951,0.00538000792079208,-0.03625480673267327,118.11558116673267,31.560712876831683,15.101762376237625,208.603610139802,0.006177458217821782,-0.03502297346534654,0.988026544950495,-0.0009754895049504951,0.00538000792079208,-0.03625480673267327,118.11558116673267,31.560712876831683,15.101762376237625,208.603610139802,10.480899012673268,0.047805148514851487,-0.019350891089108913,1.013390495049505,-0.6947603960396039,-1.1867009900990098,1.120970297029703,108.09883196435644,88.41999581623762,-432678.17754950497,-62956.24825495049,382960519.83841586,337486602.6059406,102561650.24158415,799315373.069703,80.77544554455446,18.947326732673268,100224.0
8,9603.210693069306,0.006013666534653465,-0.03535268396039604,0.9875019085148515,-0.0009628451485148515,0.005388437623762376,-0.03626492198019802,118.10352176198019,31.569386144950496,15.094871287128713,208.5331018740594,0.006013666534653465,-0.03535268396039604,0.9875019085148515,-0.0009628451485148515,0.005388437623762376,-0.03626492198019802,118.10352176198019,31.569386144950496,15.094871287128713,208.5331018740594,10.48817030019802,0.04763445544554456,-0.01968673267326733,1.0128748514851484,-0.6940118811881187,-1.186229702970297,1.1211089108910892,108.05590153069306,88.38488064712871,-432506.3502351485,-62931.24577351485,382808430.6724752,337352572.97821784,102520918.84752475,799698184.6510891,80.74336633663367,18.93980198019802,100211.0
9,10655.73702970297,0.005849874851485149,-0.03568239445544555,0.9869772720792079,-0.000950200792079208,0.0053968673267326735,-0.036275037227722774,118.09146235722771,31.578059413069308,15.087980198019803,208.46259360831684,0.005849874851485149,-0.03568239445544555,0.9869772720792079,-0.000950200792079208,0.0053968673267326735,-0.036275037227722774,118.09146235722771,31.578059413069308,15.087980198019803,208.46259360831684,10.495441587722771,0.047463762376237624,-0.020022574257425745,1.012359207920792,-0.6932633663366337,-1.1857584158415841,1.1212475247524754,108.0129710970297,88.3497654780198,-432334.5229207921,-62906.243292079205,382656341.50653464,337218543.35049504,102480187.45346534,800080996.2324753,80.71128712871287,18.93227722772277,100212.0
10,11708.263366336632,0.005686083168316832,-0.03601210495049505,0.9864526356435643,-0.0009375564356435644,0.005405297029702971,-0.03628515247524752,118.07940295247525,31.586732681188117,15.081089108910891,208.39208534257426,0.005686083168316832,-0.03601210495049505,0.9864526356435643,-0.0009375564356435644,0.005405297029702971,-0.03628515247524752,118.07940295247525,31.586732681188117,15.081089108910891,208.39208534257426,10.502712875247525,0.047293069306930696,-0.02035841584158416,1.0118435643564356,-0.6925148514851485,-1.1852871287128712,1.1213861386138615,107.97004066336633,88.31465030891088,-432162.69560643565,-62881.24081064356,382504252.34059405,337084513.7227723,102439456.05940594,800463807.8138614,80.67920792079208,18.924752475247526,100205.0
11,12760.789702970296,0.005522291485148515,-0.03634181544554455,0.9859279992079207,-0.0009249120792079208,0.005413726732673267,-0.03629526772277228,118.06734354772277,31.59540594930693,15.074198019801981,208.3215770768317,0.005522291485148515,-0.03634181544554455,0.9859279992079207,-0.0009249120792079208,0.005413726732673267,-0.03629526772277228,118.06734354772277,31.59540594930693,15.074198019801981,208.3215770768317,10.509984162772277,0.04712237623762376,-0.020694257425742574,1.0113279207920791,-0.6917663366336633,-1.1848158415841583,1.1215247524752476,107.92711022970296,88.27953513980198,-431990.8682920792,-62856.23832920792,382352163.1746535,336950484.0950495,102398724.66534653,800846619.3952476,80.6471287128713,18.917227722772278,100200.0
12,13813.31603960396,0.005358499801980198,-0.03667152594059406,0.9854033627722772,-0.0009122677227722773,0.005422156435643565,-0.03630538297029703,118.0552841429703,31.604079217425742,15.06730693069307,208.2510688110891,0.005358499801980198,-0.03667152594059406,0.9854033627722772,-0.0009122677227722773,0.005422156435643565,-0.03630538297029703,118.0552841429703,31.604079217425742,15.06730693069307,208.2510688110891,10.517255450297029,0.046951683168316834,-0.021030099009900993,1.0108122772277226,-0.6910178217821782,-1.1843445544554454,1.1216633663366338,107.8841797960396,88.24441997069307,-431819.0409777228,-62831.235847772274,382200074.0087129,336816454.46732676,102357993.27128713,801229430.9766337,80.61504950495049,18.90970297029703,100200.0
13,14865.842376237622,0.0051947081188118815,-0.03700123643564356,0.9848787263366336,-0.0008996233663366337,0.005430586138613862,-0.03631549821782178,118.04322473821782,31.612752485544554,15.06041584158416,208.18056054534654,0.0051947081188118815,-0.03700123643564356,0.9848787263366336,-0.0008996233663366337,0.005430586138613862,-0.03631549821782178,118.04322473821782,31.612752485544554,15.06041584158416,208.18056054534654,10.524526737821782,0.046780990099009906,-0.021365940594059406,1.0102966336633663,-0.690269306930693,-1.1838732673267327,1.12180198019802,107.84124936237623,88.20930480158415,-431647.21366336633,-62806.23336633664,382047984.8427723,336682424.83960396,102317261.87722772,801612242.5580198,80.5829702970297,18.90217821782178,100202.0
14,15918.368712871286,0.0050309164356435645,-0.03733094693069307,0.98435408990099,-0.0008869790099009902,0.0054390158415841584,-0.03632561346534654,118.03116533346534,31.621425753663367,15.053524752475248,208.11005227960396,0.0050309164356435645,-0.03733094693069307,0.98435408990099,-0.0008869790099009902,0.0054390158415841584,-0.03632561346534654,118.03116533346534,31.621425753663367,15.053524752475248,208.11005227960396,10.531798025346534,0.04661029702970297,-0.021701782178217822,1.0097809900990098,-0.6895207920792079,-1.1834019801980198,1.121940594059406,107.79831892871287,88.17418963247525,-431475.3863490099,-62781.23088490099,381895895.67683166,336548395.21188116,102276530.48316832,801995054.139406,80.55089108910892,18.894653465346536,100192.0
15,16970.89504950495,0.0048671247524752475,-0.03766065742574257,0.9838294534653466,-0.0008743346534653466,0.005447445544554456,-0.03633572871287129,118.01910592871286,31.63009902178218,15.046633663366338,208.0395440138614,0.0048671247524752475,-0.03766065742574257,0.9838294534653466,-0.0008743346534653466,0.005447445544554456,-0.03633572871287129,118.01910592871286,31.63009902178218,15.046633663366338,208.0395440138614,10.539069312871288,0.04643960396039604,-0.022037623762376238,1.0092653465346533,-0.6887722772277227,-1.1829306930693069,1.1220792079207922,107.7553884950495,88.13907446336634,-431303.5590346535,-62756.22840346535,381743806.5108911,336414365.5841584,102235799.08910891,802377865.720792,80.51881188118811,18.887128712871288,100187.0
16,18023.421386138612,0.0047033330693069305,-0.03799036792079208,0.983304817029703,-0.0008616902970297029,0.005455875247524753,-0.03634584396039604,118.0070465239604,31.63877228990099,15.039742574257426,207.9690357481188,0.0047033330693069305,-0.03799036792079208,0.983304817029703,-0.0008616902970297029,0.005455875247524753,-0.03634584396039604,118.0070465239604,31.63877228990099,15.039742574257426,207.9690357481188,10.54634060039604,0.04626891089108911,-0.022373465346534654,1.008749702970297,-0.6880237623762375,-1.182459405940594,1.1222178217821783,107.71245806138613,88.10395929425742,-431131.731720297,-62731.225922029706,381591717.3449505,336280335.9564356,102195067.69504951,802760677.3021783,80.48673267326733,18.87960396039604,100186.0
17,19075.947722772275,0.0045395413861386135,-0.038320078415841584,0.9827801805940594,-0.0008490459405940594,0.0054643049504950495,-0.03635595920792079,117.99498711920792,31.6474455580198,15.032851485148516,207.89852748237624,0.0045395413861386135,-0.038320078415841584,0.9827801805940594,-0.0008490459405940594,0.0054643049504950495,-0.03635595920792079,117.99498711920792,31.6474455580198,15.032851485148516,207.89852748237624,10.553611887920791,0.04609821782178218,-0.02270930693069307,1.0082340594059405,-0.6872752475247524,-1.181988118811881,1.1223564356435645,107.66952762772277,88.06884412514852,-430959.9044059406,-62706.22344059406,381439628.1790099,336146306.3287129,102154336.3009901,803143488.8835644,80.45465346534654,18.87207920792079,100187.0
18,20128.47405940594,0.0043757497029702965,-0.03864978891089109,0.9822555441584159,-0.0008364015841584158,0.005472734653465347,-0.03636607445544555,117.98292771445544,31.656118826138613,15.025960396039604,207.82801921663366,0.0043757497029702965,-0.03864978891089109,0.9822555441584159,-0.0008364015841584158,0.005472734653465347,-0.03636607445544555,117.98292771445544,31.656118826138613,15.025960396039604,207.82801921663366,10.560883175445545,0.045927524752475246,-0.023045148514851486,1.0077184158415842,-0.6865267326732672,-1.1815168316831683,1.1224950495049506,107.6265971940594,88.03372895603961,-430788.07709158416,-62681.22095915842,381287539.01306933,336012276.7009901,102113604.9069307,803526300.4649504,80.42257425742574,18.864554455445546,100177.0
19,21181.000396039602,0.0042119580198019795,-0.038979499405940594,0.9817309077227723,-0.0008237572277227723,0.005481164356435644,-0.036376189702970296,117.97086830970296,31.664792094257425,15.019069306930694,207.7575109508911,0.0042119580198019795,-0.038979499405940594,0.9817309077227723,-0.0008237572277227723,0.005481164356435644,-0.036376189702970296,117.97086830970296,31.664792094257425,15.019069306930694,207.7575109508911,10.568154462970297,0.04575683168316832,-0.023380990099009902,1.0072027722772277,-0.6857782178217822,-1.1810455445544554,1.1226336633663367,107.58366676039604,87.99861378693069,-430616.2497772277,-62656.218477722774,381135449.8471287,335878247.07326734,102072873.51287128,803909112.0463367,80.39049504950495,18.857029702970298,100165.0
20,22233.526732673265,0.004048166336633663,-0.0393092099009901,0.9812062712871287,-0.0008111128712871287,0.005489594059405941,-0.03638630495049505,117.95880890495049,31.673465362376238,15.012178217821782,207.6870026851485,0.004048166336633663,-0.0393092099009901,0.9812062712871287,-0.0008111128712871287,0.005489594059405941,-0.03638630495049505,117.95880890495049,31.673465362376238,15.012178217821782,207.6870026851485,10.575425750495048,0.04558613861386139,-0.023716831683168318,1.0066871287128711,-0.685029702970297,-1.1805742574257425,1.1227722772277229,107.54073632673267,87.96349861782178,-430444.4224628713,-62631.21599628713,380983360.6811881,335744217.44554454,102032142.11881188,804291923.6277227,80.35841584158416,18.84950495049505,100170.0
21,23286.05306930693,0.0038843746534653464,-0.039638920396039605,0.9806816348514852,-0.0007984685148514851,0.005498023762376238,-0.0363964201980198,117.94674950019801,31.68213863049505,15.005287128712872,207.61649441940594,0.0038843746534653464,-0.039638920396039605,0.9806816348514852,-0.0007984685148514851,0.005498023762376238,-0.0363964201980198,117.94674950019801,31.68213863049505,15.005287128712872,207.61649441940594,10.582697038019802,0.045415445544554456,-0.024052673267326734,1.0061714851485148,-0.6842811881188119,-1.1801029702970296,1.122910891089109,107.4978058930693,87.92838344871286,-430272.59514851484,-62606.213514851486,380831271.5152475,335610187.8178218,101991410.72475247,804674735.209109,80.32633663366336,18.8419801980198,100163.0
22,24338.579405940593,0.0037205829702970294,-0.03996863089108911,0.9801569984158416,-0.0007858241584158416,0.005506453465346535,-0.036406535445544556,117.93469009544555,31.690811898613862,14.99839603960396,207.54598615366336,0.0037205829702970294,-0.03996863089108911,0.9801569984158416,-0.0007858241584158416,0.005506453465346535,-0.036406535445544556,117.93469009544555,31.690811898613862,14.99839603960396,207.54598615366336,10.589968325544554,0.04524475247524753,-0.02438851485148515,1.0056558415841583,-0.6835326732673267,-1.1796316831683167,1.1230495049504952,107.45487545940594,87.89326827960396,-430100.76783415844,-62581.21103341584,380679182.34930694,335476158.190099,101950679.33069307,805057546.790495,80.29425742574257,18.834455445544556,100160.0
23,25391.105742574255,0.003556791287128713,-0.040298341386138616,0.979632361980198,-0.0007731798019801981,0.005514883168316832,-0.036416650693069305,117.92263069069307,31.699485166732675,14.99150495049505,207.4754778879208,0.003556791287128713,-0.040298341386138616,0.979632361980198,-0.0007731798019801981,0.005514883168316832,-0.036416650693069305,117.92263069069307,31.699485166732675,14.99150495049505,207.4754778879208,10.597239613069307,0.04507405940594059,-0.024724356435643566,1.0051401980198018,-0.6827841584158415,-1.179160396039604,1.1231881188118813,107.41194502574257,87.85815311049505,-429928.940519802,-62556.2085519802,380527093.18336636,335342128.56237626,101909947.93663366,805440358.3718812,80.26217821782178,18.826930693069308,100154.0
24,26443.63207920792,0.0033929996039603954,-0.04062805188118812,0.9791077255445545,-0.0007605354455445545,0.005523312871287129,-0.03642676594059406,117.91057128594059,31.708158434851484,14.984613861386139,207.4049696221782,0.0033929996039603954,-0.04062805188118812,0.9791077255445545,-0.0007605354455445545,0.005523312871287129,-0.03642676594059406,117.91057128594059,31.708158434851484,14.984613861386139,207.4049696221782,10.60451090059406,0.044903366336633666,-0.025060198019801982,1.0046245544554455,-0.6820356435643564,-1.178689108910891,1.1233267326732674,107.36901459207921,87.82303794138613,-429757.1132054455,-62531.206070544555,380375004.0174257,335208098.93465346,101869216.54257426,805823169.9532673,80.230099009901,18.81940594059406,100145.0
25,27496.158415841583,0.0032292079207920793,-0.040957762376237626,0.9785830891089109,-0.0007478910891089109,0.0055317425742574255,-0.03643688118811881,117.89851188118811,31.716831702970296,14.977722772277229,207.33446135643567,0.0032292079207920793,-0.040957762376237626,0.9785830891089109,-0.0007478910891089109,0.0055317425742574255,-0.03643688118811881,117.89851188118811,31.716831702970296,14.977722772277229,207.33446135643567,10.611782188118811,0.04473267326732673,-0.025396039603960398,1.004108910891089,-0.6812871287128712,-1.1782178217821782,1.1234653465346536,107.32608415841584,87.78792277227723,-429585.2858910891,-62506.20358910891,380222914.85148513,335074069.3069307,101828485.14851485,806205981.5346534,80.1980198019802,18.81188118811881,100144.0
26,28548.684752475245,0.0030654162376237623,-0.04128747287128713,0.9780584526732673,-0.0007352467326732673,0.005540172277227723,-0.036446996435643565,117.88645247643564,31.72550497108911,14.970831683168317,207.2639530906931,0.0030654162376237623,-0.04128747287128713,0.9780584526732673,-0.0007352467326732673,0.005540172277227723,-0.036446996435643565,117.88645247643564,31.72550497108911,14.970831683168317,207.2639530906931,10.619053475643565,0.0445619801980198,-0.025731881188118814,1.0035932673267325,-0.6805386138613861,-1.1777465346534652,1.1236039603960397,107.28315372475247,87.75280760316832,-429413.45857673266,-62481.20110767327,380070825.68554455,334940039.6792079,101787753.75445545,806588793.1160396,80.1659405940594,18.804356435643566,100136.0
27,29601.211089108907,0.0029016245544554453,-0.04161718336633663,0.9775338162376238,-0.0007226023762376238,0.00554860198019802,-0.03645711168316832,117.87439307168316,31.73417823920792,14.963940594059407,207.19344482495052,0.0029016245544554453,-0.04161718336633663,0.9775338162376238,-0.0007226023762376238,0.00554860198019802,-0.03645711168316832,117.87439307168316,31.73417823920792,14.963940594059407,207.19344482495052,10.626324763168316,0.044391287128712875,-0.02606772277227723,1.0030776237623762,-0.679790099009901,-1.1772752475247523,1.1237425742574259,107.24022329108911,87.7176924340594,-429241.63126237626,-62456.19862623762,379918736.51960397,334806010.0514851,101747022.36039604,806971604.6974257,80.13386138613862,18.796831683168318,100130.0
28,30653.737425742573,0.0027378328712871283,-0.04194689386138614,0.9770091798019802,-0.0007099580198019803,0.0055570316831683175,-0.03646722693069307,117.8623336669307,31.742851507326733,14.957049504950495,207.12293655920794,0.0027378328712871283,-0.04194689386138614,0.9770091798019802,-0.0007099580198019803,0.0055570316831683175,-0.03646722693069307,117.8623336669307,31.742851507326733,14.957049504950495,207.12293655920794,10.633596050693068,0.04422059405940594,-0.026403564356435642,1.0025619801980197,-0.6790415841584158,-1.1768039603960396,1.123881188118812,107.19729285742574,87.6825772649505,-429069.8039480198,-62431.19614480198,379766647.3536634,334671980.4237624,101706290.96633664,807354416.2788119,80.10178217821782,18.78930693069307,100122.0
29,31706.263762376235,0.0025740411881188113,-0.04227660435643564,0.9764845433663366,-0.0006973136633663367,0.005565461386138614,-0.036477342178217825,117.85027426217822,31.751524775445546,14.950158415841585,207.05242829346537,0.0025740411881188113,-0.04227660435643564,0.9764845433663366,-0.0006973136633663367,0.005565461386138614,-0.036477342178217825,117.85027426217822,31.751524775445546,14.950158415841585,207.05242829346537,10.640867338217822,0.04404990099009901,-0.026739405940594062,1.0020463366336634,-0.6782930693069307,-1.1763326732673267,1.1240198019801981,107.15436242376238,87.64746209584159,-428897.97663366335,-62406.193663366335,379614558.18772274,334537950.7960396,101665559.57227723,807737227.860198,80.06970297029703,18.78178217821782,100109.0
30,32758.790099009897,0.002410249504950495,-0.042606314851485146,0.975959906930693,-0.000684669306930693,0.005573891089108911,-0.036487457425742574,117.83821485742574,31.760198043564355,14.943267326732673,206.9819200277228,0.002410249504950495,-0.042606314851485146,0.975959906930693,-0.000684669306930693,0.005573891089108911,-0.036487457425742574,117.83821485742574,31.760198043564355,14.943267326732673,206.9819200277228,10.648138625742574,0.043879207920792085,-0.027075247524752474,1.0015306930693069,-0.6775445544554455,-1.1758613861386138,1.1241584158415843,107.111431990099,87.61234692673267,-428726.14931930695,-62381.19118193069,379462469.02178216,334403921.16831684,101624828.17821783,808120039.4415841,80.03762376237624,18.774257425742576,100108.0
31,33811.31643564356,0.002246457821782178,-0.04293602534653465,0.9754352704950495,-0.0006720249504950494,0.005582320792079208,-0.03649757267326733,117.82615545267326,31.768871311683167,14.936376237623763,206.91141176198022,0.002246457821782178,-0.04293602534653465,0.9754352704950495,-0.0006720249504950494,0.005582320792079208,-0.03649757267326733,117.82615545267326,31.768871311683167,14.936376237623763,206.91141176198022,10.655409913267327,0.04370851485148515,-0.027411089108910894,1.0010150495049503,-0.6767960396039604,-1.1753900990099009,1.1242970297029704,107.06850155643563,87.57723175762376,-428554.3220049505,-62356.18870049505,379310379.8558416,334269891.54059404,101584096.78415841,808502851.0229703,80.00554455445544,18.766732673267327,100102.0
32,34863.842772277225,0.0020826661386138612,-0.043265735841584156,0.9749106340594059,-0.0006593805940594059,0.005590750495049505,-0.03650768792079208,117.81409604792078,31.77754457980198,14.929485148514852,206.84090349623764,0.0020826661386138612,-0.043265735841584156,0.9749106340594059,-0.0006593805940594059,0.005590750495049505,-0.03650768792079208,117.81409604792078,31.77754457980198,14.929485148514852,206.84090349623764,10.662681200792079,0.04353782178217822,-0.027746930693069306,1.000499405940594,-0.6760475247524752,-1.174918811881188,1.1244356435643565,107.02557112277228,87.54211658851484,-428382.49469059403,-62331.186219059404,379158290.689901,334135861.9128713,101543365.390099,808885662.6043564,79.97346534653465,18.75920792079208,100094.0
33,35916.36910891089,0.0019188744554455442,-0.04359544633663366,0.9743859976237623,-0.0006467362376237624,0.005599180198019802,-0.036517803168316834,117.80203664316831,31.786217847920792,14.922594059405942,206.77039523049507,0.0019188744554455442,-0.04359544633663366,0.9743859976237623,-0.0006467362376237624,0.005599180198019802,-0.036517803168316834,117.80203664316831,31.786217847920792,14.922594059405942,206.77039523049507,10.66995248831683,0.04336712871287129,-0.028082772277227726,0.9999837623762375,-0.67529900990099,-1.1744475247524753,1.1245742574257427,106.9826406891089,87.50700141940594,-428210.66737623763,-62306.18373762376,379006201.5239604,334001832.2851485,101502633.9960396,809268474.1857426,79.94138613861386,18.75168316831683,100090.0
34,36968.89544554455,0.0017550827722772272,-0.04392515683168317,0.9738613611881188,-0.0006340918811881188,0.005607609900990099,-0.03652791841584158,117.78997723841584,31.794891116039604,14.91570297029703,206.6998869647525,0.0017550827722772272,-0.04392515683168317,0.9738613611881188,-0.0006340918811881188,0.005607609900990099,-0.03652791841584158,117.78997723841584,31.794891116039604,14.91570297029703,206.6998869647525,10.677223775841584,0.04319643564356436,-0.02841861386138614,0.9994681188118811,-0.6745504950495049,-1.1739762376237624,1.1247128712871288,106.93971025544555,87.47188625029703,-428038.8400618812,-62281.181256188116,378854112.3580198,333867802.65742576,101461902.6019802,809651285.7671287,79.90930693069306,18.744158415841586,100083.0
35,38021.421782178215,0.001591291089108911,-0.04425486732673267,0.9733367247524752,-0.0006214475247524752,0.005616039603960396,-0.03653803366336634,117.77791783366337,31.803564384158417,14.90881188118812,206.62937869900992,0.001591291089108911,-0.04425486732673267,0.9733367247524752,-0.0006214475247524752,0.005616039603960396,-0.03653803366336634,117.77791783366337,31.803564384158417,14.90881188118812,206.62937869900992,10.684495063366336,0.043025742574257425,-0.028754455445544558,0.9989524752475246,-0.6738019801980197,-1.1735049504950494,1.124851485148515,106.89677982178218,87.43677108118811,-427867.0127475248,-62256.17877475247,378702023.1920792,333733773.02970296,101421171.20792079,810034097.3485148,79.87722772277228,18.736633663366337,100077.0
36,39073.94811881188,0.0014274994059405941,-0.04458457782178218,0.9728120883168316,-0.0006088031683168316,0.0056244693069306935,-0.03654814891089109,117.76585842891089,31.81223765227723,14.901920792079208,206.55887043326734,0.0014274994059405941,-0.04458457782178218,0.9728120883168316,-0.0006088031683168316,0.0056244693069306935,-0.03654814891089109,117.76585842891089,31.81223765227723,14.901920792079208,206.55887043326734,10.691766350891088,0.0428550495049505,-0.02909029702970297,0.9984368316831682,-0.6730534653465347,-1.1730336633663365,1.124990099009901,106.8538493881188,87.4016559120792,-427695.1854331683,-62231.17629331683,378549934.0261386,333599743.4019802,101380439.81386138,810416908.929901,79.84514851485149,18.72910891089109,100066.0
37,40126.47445544554,0.0012637077227722771,-0.04491428831683168,0.9722874518811881,-0.0005961588118811881,0.00563289900990099,-0.03655826415841584,117.75379902415841,31.820910920396038,14.895029702970298,206.48836216752477,0.0012637077227722771,-0.04491428831683168,0.9722874518811881,-0.0005961588118811881,0.00563289900990099,-0.03655826415841584,117.75379902415841,31.820910920396038,14.895029702970298,206.48836216752477,10.699037638415842,0.04268435643564357,-0.02942613861386139,0.9979211881188118,-0.6723049504950495,-1.1725623762376236,1.1251287128712872,106.81091895445545,87.3665407429703,-427523.35811881186,-62206.17381188119,378397844.860198,333465713.7742574,101339708.41980198,810799720.5112871,79.8130693069307,18.72158415841584,100067.0
38,41179.000792079205,0.0010999160396039601,-0.04524399881188119,0.9717628154455445,-0.0005835144554455446,0.005641328712871287,-0.03656837940594059,117.74173961940593,31.82958418851485,14.888138613861386,206.4178539017822,0.0010999160396039601,-0.04524399881188119,0.9717628154455445,-0.0005835144554455446,0.005641328712871287,-0.03656837940594059,117.74173961940593,31.82958418851485,14.888138613861386,206.4178539017822,10.706308925940593,0.042513663366336635,-0.029761980198019802,0.9974055445544554,-0.6715564356435643,-1.172091089108911,1.1252673267326734,106.76798852079207,87.33142557386138,-427351.53080445545,-62181.17133044555,378245755.69425744,333331684.1465347,101298977.02574258,811182532.0926733,79.7809900990099,18.714059405940596,100057.0
39,42231.52712871287,0.0009361243564356431,-0.04557370930693069,0.971238179009901,-0.000570870099009901,0.005649758415841585,-0.03657849465346535,117.72968021465346,31.838257456633663,14.881247524752476,206.34734563603962,0.0009361243564356431,-0.04557370930693069,0.971238179009901,-0.000570870099009901,0.005649758415841585,-0.03657849465346535,117.72968021465346,31.838257456633663,14.881247524752476,206.34734563603962,10.713580213465347,0.04234297029702971,-0.03009782178217822,0.9968899009900989,-0.6708079207920792,-1.171619801980198,1.1254059405940595,106.72505808712872,87.29631040475248,-427179.703490099,-62156.168849009904,378093666.52831686,333197654.5188119,101258245.63168317,811565343.6740594,79.74891089108911,18.706534653465347,100050.0
40,43284.05346534653,0.000772332673267327,-0.0459034198019802,0.9707135425742575,-0.0005582257425742574,0.005658188118811881,-0.0365886099009901,117.71762080990099,31.846930724752475,14.874356435643564,206.27683737029705,0.000772332673267327,-0.0459034198019802,0.9707135425742575,-0.0005582257425742574,0.005658188118811881,-0.0365886099009901,117.71762080990099,31.846930724752475,14.874356435643564,206.27683737029705,10.720851500990099,0.04217227722772277,-0.030433663366336634,0.9963742574257425,-0.670059405940594,-1.171148514851485,1.1255445544554457,106.68212765346534,87.26119523564357,-427007.8761757426,-62131.16636757426,377941577.3623762,333063624.8910891,101217514.23762377,811948155.2554456,79.71683168316832,18.6990099009901,100050.0
41,44336.579801980195,0.00060854099009901,-0.046233130297029704,0.9701889061386139,-0.0005455813861386139,0.005666617821782178,-0.03659872514851485,117.70556140514852,31.855603992871288,14.867465346534654,206.20632910455447,0.00060854099009901,-0.046233130297029704,0.9701889061386139,-0.0005455813861386139,0.005666617821782178,-0.03659872514851485,117.70556140514852,31.855603992871288,14.867465346534654,206.20632910455447,10.72812278851485,0.042001584158415844,-0.03076950495049505,0.9958586138613861,-0.6693108910891089,-1.1706772277227722,1.1256831683168318,106.63919721980197,87.22608006653465,-426836.04886138614,-62106.16388613862,377789488.19643563,332929595.26336634,101176782.84356436,812330966.8368317,79.68475247524752,18.69148514851485,100039.0
42,45389.10613861386,0.000444749306930693,-0.04656284079207921,0.9696642697029703,-0.0005329370297029703,0.005675047524752476,-0.03660884039603961,117.69350200039604,31.8642772609901,14.860574257425743,206.1358208388119,0.000444749306930693,-0.04656284079207921,0.9696642697029703,-0.0005329370297029703,0.005675047524752476,-0.03660884039603961,117.69350200039604,31.8642772609901,14.860574257425743,206.1358208388119,10.735394076039604,0.04183089108910891,-0.031105346534653466,0.9953429702970296,-0.6685623762376237,-1.1702059405940592,1.125821782178218,106.59626678613861,87.19096489742574,-426664.2215470297,-62081.16140470297,377637399.03049505,332795565.63564354,101136051.44950496,812713778.4182178,79.65267326732673,18.683960396039605,100033.0
43,46441.63247524752,0.00028095762376237603,-0.046892551287128714,0.9691396332673268,-0.0005202926732673267,0.005683477227722772,-0.036618955643564356,117.68144259564356,31.872950529108913,14.853683168316833,206.06531257306932,0.00028095762376237603,-0.046892551287128714,0.9691396332673268,-0.0005202926732673267,0.005683477227722772,-0.036618955643564356,117.68144259564356,31.872950529108913,14.853683168316833,206.06531257306932,10.742665363564356,0.04166019801980198,-0.031441188118811886,0.9948273267326732,-0.6678138613861386,-1.1697346534653466,1.125960396039604,106.55333635247524,87.15584972831684,-426492.3942326733,-62056.15892326733,377485309.86455446,332661536.0079208,101095320.05544555,813096589.999604,79.62059405940595,18.676435643564357,100018.0
44,47494.158811881185,0.00011716594059405904,-0.04722226178217821,0.9686149968316832,-0.0005076483168316832,0.0056919069306930695,-0.03662907089108911,117.66938319089108,31.88162379722772,14.84679207920792,205.99480430732675,0.00011716594059405904,-0.04722226178217821,0.9686149968316832,-0.0005076483168316832,0.0056919069306930695,-0.03662907089108911,117.66938319089108,31.88162379722772,14.84679207920792,205.99480430732675,10.749936651089108,0.041489504950495054,-0.0317770297029703,0.9943116831683168,-0.6670653465346534,-1.1692633663366336,1.1260990099009902,106.51040591881188,87.12073455920792,-426320.5669183168,-62031.156441831685,377333220.6986139,332527506.380198,101054588.66138613,813479401.5809901,79.58851485148514,18.66891089108911,100017.0
45,48546.68514851485,-4.662574257425795e-05,-0.047551972277227725,0.9680903603960396,-0.0004950039603960395,0.005700336633663367,-0.03663918613861386,117.6573237861386,31.890297065346534,14.83990099009901,205.92429604158417,-4.662574257425795e-05,-0.047551972277227725,0.9680903603960396,-0.0004950039603960395,0.005700336633663367,-0.03663918613861386,117.6573237861386,31.890297065346534,14.83990099009901,205.92429604158417,10.757207938613861,0.04131881188118812,-0.03211287128712871,0.9937960396039603,-0.6663168316831682,-1.1687920792079207,1.1262376237623763,106.46747548514851,87.08561939009901,-426148.7396039604,-62006.15396039604,377181131.53267324,332393476.75247526,101013857.26732673,813862213.1623763,79.55643564356436,18.66138613861386,100003.0
46,49599.21148514851,-0.00021041742574257408,-0.04788168277227722,0.9675657239603961,-0.00048235960396039604,0.005708766336633663,-0.036649301386138616,117.64526438138614,31.898970333465346,14.833009900990099,205.8537877758416,-0.00021041742574257408,-0.04788168277227722,0.9675657239603961,-0.00048235960396039604,0.005708766336633663,-0.036649301386138616,117.64526438138614,31.898970333465346,14.833009900990099,205.8537877758416,10.764479226138613,0.04114811881188119,-0.03244871287128713,0.9932803960396038,-0.6655683168316832,-1.1683207920792078,1.1263762376237625,106.42454505148514,87.05050422099009,-425976.91228960396,-61981.1514789604,377029042.36673266,332259447.12475246,100973125.87326732,814245024.7437624,79.52435643564357,18.653861386138615,99997.0
47,50651.737821782175,-0.00037420910891089107,-0.048211393267326735,0.9670410875247525,-0.00046971524752475243,0.005717196039603961,-0.036659416633663365,117.63320497663366,31.90764360158416,14.826118811881189,205.78327951009902,-0.00037420910891089107,-0.048211393267326735,0.9670410875247525,-0.00046971524752475243,0.005717196039603961,-0.036659416633663365,117.63320497663366,31.90764360158416,14.826118811881189,205.78327951009902,10.771750513663367,0.04097742574257426,-0.03278455445544555,0.9927647524752474,-0.664819801980198,-1.1678495049504949,1.1265148514851486,106.38161461782178,87.01538905188119,-425805.0849752475,-61956.14899752475,376876953.2007921,332125417.4970297,100932394.47920792,814627836.3251485,79.49227722772277,18.646336633663367,99991.0
48,51704.26415841584,-0.0005380007920792089,-0.048541103762376234,0.9665164510891089,-0.0004570708910891089,0.005725625742574258,-0.03666953188118812,117.62114557188119,31.91631686970297,14.819227722772277,205.71277124435645,-0.0005380007920792089,-0.048541103762376234,0.9665164510891089,-0.0004570708910891089,0.005725625742574258,-0.03666953188118812,117.62114557188119,31.91631686970297,14.819227722772277,205.71277124435645,10.779021801188119,0.04080673267326733,-0.03312039603960396,0.992249108910891,-0.6640712871287129,-1.1673782178217822,1.1266534653465348,106.33868418415841,86.98027388277228,-425633.2576608911,-61931.14651608911,376724864.0348515,331991387.8693069,100891663.08514851,815010647.9065347,79.46019801980198,18.63881188118812,99977.0
49,52756.7904950495,-0.0007017924752475242,-0.048870814257425746,0.9659918146534654,-0.0004444265346534653,0.005734055445544554,-0.03667964712871287,117.60908616712871,31.924990137821784,14.812336633663367,205.64226297861387,-0.0007017924752475242,-0.048870814257425746,0.9659918146534654,-0.0004444265346534653,0.005734055445544554,-0.03667964712871287,117.60908616712871,31.924990137821784,14.812336633663367,205.64226297861387,10.78629308871287,0.040636039603960394,-0.033456237623762375,0.9917334653465346,-0.6633227722772277,-1.1669069306930693,1.126792079207921,106.29575375049505,86.94515871366336,-425461.43034653465,-61906.144034653465,376572774.8689109,331857358.2415842,100850931.69108911,815393459.4879208,79.42811881188119,18.63128712871287,99976.0
50,53809.316831683165,-0.0008655841584158412,-0.049200524752475244,0.9654671782178218,-0.0004317821782178217,0.005742485148514852,-0.036689762376237625,117.59702676237623,31.933663405940592,14.805445544554455,205.5717547128713,-0.0008655841584158412,-0.049200524752475244,0.9654671782178218,-0.0004317821782178217,0.005742485148514852,-0.036689762376237625,117.59702676237623,31.933663405940592,14.805445544554455,205.5717547128713,10.793564376237624,0.04046534653465347,-0.033792079207920794,0.9912178217821781,-0.6625742574257425,-1.1664356435643564,1.126930693069307,106.25282331683168,86.91004354455445,-425289.60303217825,-61881.14155321782,376420685.70297027,331723328.6138614,100810200.2970297,815776271.069307,79.39603960396039,18.623762376237625,99965.0
51,54861.843168316824,-0.0010293758415841582,-0.04953023524752475,0.9649425417821782,-0.0004191378217821782,0.005750914851485149,-0.036699877623762374,117.58496735762375,31.942336674059405,14.798554455445545,205.50124644712872,-0.0010293758415841582,-0.04953023524752475,0.9649425417821782,-0.0004191378217821782,0.005750914851485149,-0.036699877623762374,117.58496735762375,31.942336674059405,14.798554455445545,205.50124644712872,10.800835663762376,0.04029465346534654,-0.034127920792079214,0.9907021782178217,-0.6618257425742574,-1.1659643564356434,1.1270693069306932,106.20989288316831,86.87492837544555,-425117.7757178218,-61856.13907178218,376268596.5370297,331589298.98613864,100769468.9029703,816159082.650693,79.3639603960396,18.616237623762377,99953.0
52,55914.36950495049,-0.0011931675247524752,-0.049859945742574255,0.9644179053465346,-0.0004064934653465346,0.0057593445544554455,-0.03670999287128713,117.57290795287129,31.951009942178217,14.791663366336634,205.43073818138615,-0.0011931675247524752,-0.049859945742574255,0.9644179053465346,-0.0004064934653465346,0.0057593445544554455,-0.03670999287128713,117.57290795287129,31.951009942178217,14.791663366336634,205.43073818138615,10.808106951287128,0.040123960396039604,-0.034463762376237626,0.9901865346534653,-0.6610772277227722,-1.1654930693069305,1.1272079207920793,106.16696244950495,86.83981320633663,-424945.9484034653,-61831.136590346534,376116507.3710891,331455269.35841584,100728737.5089109,816541894.2320793,79.33188118811881,18.60871287128713,99955.0
53,56966.895841584155,-0.0013569592079207922,-0.05018965623762376,0.9638932689108911,-0.0003938491089108911,0.005767774257425743,-0.036720108118811885,117.56084854811881,31.95968321029703,14.784772277227724,205.36022991564357,-0.0013569592079207922,-0.05018965623762376,0.9638932689108911,-0.0003938491089108911,0.005767774257425743,-0.036720108118811885,117.56084854811881,31.95968321029703,14.784772277227724,205.36022991564357,10.815378238811881,0.039953267326732676,-0.03479960396039604,0.9896708910891088,-0.6603287128712871,-1.1650217821782178,1.1273465346534655,106.12403201584158,86.80469803722772,-424774.1210891089,-61806.13410891089,375964418.2051485,331321239.73069304,100688006.11485149,816924705.8134654,79.29980198019803,18.60118811881188,99948.0
54,58019.422178217814,-0.0015207508910891092,-0.050519366732673265,0.9633686324752475,-0.0003812047524752475,0.00577620396039604,-0.036730223366336634,117.54878914336633,31.968356478415842,14.777881188118812,205.289721649901,-0.0015207508910891092,-0.050519366732673265,0.9633686324752475,-0.0003812047524752475,0.00577620396039604,-0.036730223366336634,117.54878914336633,31.968356478415842,14.777881188118812,205.289721649901,10.822649526336633,0.03978257425742575,-0.03513544554455446,0.9891552475247524,-0.6595801980198019,-1.164550495049505,1.1274851485148516,106.08110158217822,86.76958286811882,-424602.29377475247,-61781.131627475246,375812329.03920794,331187210.1029703,100647274.72079208,817307517.3948514,79.26772277227722,18.593663366336635,99936.0
55,59071.94851485148,-0.0016845425742574261,-0.05084907722772277,0.9628439960396039,-0.00036856039603960387,0.005784633663366337,-0.03674033861386139,117.53672973861386,31.977029746534654,14.770990099009902,205.21921338415842,-0.0016845425742574261,-0.05084907722772277,0.9628439960396039,-0.00036856039603960387,0.005784633663366337,-0.03674033861386139,117.53672973861386,31.977029746534654,14.770990099009902,205.21921338415842,10.829920813861387,0.039611881188118814,-0.03547128712871287,0.988639603960396,-0.6588316831683168,-1.164079207920792,1.1276237623762377,106.03817114851485,86.7344676990099,-424430.46646039607,-61756.1291460396,375660239.87326735,331053180.4752475,100606543.32673268,817690328.9762377,79.23564356435644,18.586138613861387,99928.0
56,60124.474851485145,-0.0018483342574257431,-0.051178787722772276,0.9623193596039604,-0.00035591603960396037,0.005793063366336634,-0.03675045386138614,117.52467033386138,31.985703014653467,14.76409900990099,205.14870511841585,-0.0018483342574257431,-0.051178787722772276,0.9623193596039604,-0.00035591603960396037,0.005793063366336634,-0.03675045386138614,117.52467033386138,31.985703014653467,14.76409900990099,205.14870511841585,10.837192101386139,0.03944118811881188,-0.03580712871287128,0.9881239603960396,-0.6580831683168317,-1.163607920792079,1.1277623762376239,105.99524071485148,86.69935252990099,-424258.6391460396,-61731.12666460396,375508150.7073267,330919150.84752476,100565811.93267326,818073140.5576237,79.20356435643565,18.57861386138614,99920.0
57,61177.001188118804,-0.00201212594059406,-0.05150849821782178,0.9617947231683168,-0.00034327168316831676,0.005801493069306931,-0.036760569108910894,117.5126109291089,31.994376282772276,14.75720792079208,205.07819685267327,-0.00201212594059406,-0.05150849821782178,0.9617947231683168,-0.00034327168316831676,0.005801493069306931,-0.036760569108910894,117.5126109291089,31.994376282772276,14.75720792079208,205.07819685267327,10.84446338891089,0.03927049504950495,-0.0361429702970297,0.987608316831683,-0.6573346534653465,-1.1631366336633664,1.12790099009901,105.95231028118812,86.66423736079207,-424086.81183168315,-61706.124183168315,375356061.5413861,330785121.21980196,100525080.53861386,818455952.13901,79.17148514851485,18.57108910891089,99921.0
58,62229.52752475247,-0.002175917623762377,-0.051838208712871287,0.9612700867326732,-0.00033062732673267326,0.005809922772277228,-0.03677068435643564,117.50055152435644,32.00304955089109,14.750316831683168,205.0076885869307,-0.002175917623762377,-0.051838208712871287,0.9612700867326732,-0.00033062732673267326,0.005809922772277228,-0.03677068435643564,117.50055152435644,32.00304955089109,14.750316831683168,205.0076885869307,10.851734676435644,0.03909980198019802,-0.03647881188118812,0.9870926732673266,-0.6565861386138614,-1.1626653465346535,1.1280396039603962,105.90937984752475,86.62912219168317,-423914.98451732675,-61681.12170173267,375203972.37544554,330651091.5920792,100484349.14455445,818838763.720396,79.13940594059406,18.563564356435645,99903.0
59,63282.053861386135,-0.0023397093069306924,-0.05216791920792079,0.9607454502970297,-0.00031798297029702965,0.005818352475247525,-0.0367807996039604,117.48849211960396,32.011722819009904,14.743425742574258,204.93718032118812,-0.0023397093069306924,-0.05216791920792079,0.9607454502970297,-0.00031798297029702965,0.005818352475247525,-0.0367807996039604,117.48849211960396,32.011722819009904,14.743425742574258,204.93718032118812,10.859005963960396,0.03892910891089109,-0.036814653465346535,0.9865770297029702,-0.6558376237623762,-1.1621940594059406,1.1281782178217823,105.86644941386139,86.59400702257426,-423743.1572029703,-61656.11922029703,375051883.20950496,330517061.9643564,100443617.75049505,819221575.3017821,79.10732673267327,18.556039603960397,99897.0
60,64334.580198019794,-0.0025035009900990094,-0.0524976297029703,0.9602208138613861,-0.00030533861386138604,0.005826782178217822,-0.03679091485148515,117.47643271485148,32.02039608712871,14.736534653465347,204.86667205544555,-0.0025035009900990094,-0.0524976297029703,0.9602208138613861,-0.00030533861386138604,0.005826782178217822,-0.03679091485148515,117.47643271485148,32.02039608712871,14.736534653465347,204.86667205544555,10.866277251485148,0.03875841584158416,-0.03715049504950495,0.9860613861386137,-0.655089108910891,-1.1617227722772276,1.1283168316831684,105.82351898019802,86.55889185346534,-423571.32988861384,-61631.11673886138,374899794.0435644,330383032.3366337,100402886.35643564,819604386.8831683,79.07524752475247,18.548514851485148,99886.0
61,65387.10653465346,-0.0026672926732673264,-0.052827340198019795,0.9596961774257425,-0.00029269425742574253,0.005835211881188119,-0.0368010300990099,117.464373310099,32.02906935524752,14.729643564356437,204.79616378970297,-0.0026672926732673264,-0.052827340198019795,0.9596961774257425,-0.00029269425742574253,0.005835211881188119,-0.0368010300990099,117.464373310099,32.02906935524752,14.729643564356437,204.79616378970297,10.873548539009901,0.03858772277227723,-0.03748633663366337,0.9855457425742573,-0.6543405940594059,-1.1612514851485147,1.1284554455445546,105.78058854653464,86.52377668435643,-423399.50257425744,-61606.11425742574,374747704.87762374,330249002.7089109,100362154.96237624,819987198.4645544,79.04316831683168,18.5409900990099,99883.0
62,66439.63287128712,-0.0028310843564356434,-0.05315705069306931,0.959171540990099,-0.0002800499009900989,0.005843641584158416,-0.03681114534653465,117.45231390534653,32.037742623366334,14.722752475247525,204.7256555239604,-0.0028310843564356434,-0.05315705069306931,0.959171540990099,-0.0002800499009900989,0.005843641584158416,-0.03681114534653465,117.45231390534653,32.037742623366334,14.722752475247525,204.7256555239604,10.880819826534653,0.0384170297029703,-0.037822178217821786,0.9850300990099009,-0.6535920792079207,-1.160780198019802,1.1285940594059407,105.73765811287129,86.48866151524753,-423227.675259901,-61581.111775990095,374595615.71168315,330114973.08118814,100321423.56831683,820370010.0459406,79.0110891089109,18.533465346534655,99875.0
63,67492.15920792079,-0.0029948760396039604,-0.053486761188118806,0.9586469045544554,-0.0002674055445544554,0.0058520712871287135,-0.03682126059405941,117.44025450059405,32.04641589148515,14.715861386138615,204.65514725821782,-0.0029948760396039604,-0.053486761188118806,0.9586469045544554,-0.0002674055445544554,0.0058520712871287135,-0.03682126059405941,117.44025450059405,32.04641589148515,14.715861386138615,204.65514725821782,10.888091114059407,0.03824633663366337,-0.0381580198019802,0.9845144554455445,-0.6528435643564356,-1.1603089108910891,1.1287326732673268,105.69472767920792,86.45354634613861,-423055.8479455446,-61556.10929455446,374443526.5457426,329980943.45346534,100280692.17425743,820752821.6273267,78.97900990099009,18.525940594059406,99875.0
64,68544.68554455445,-0.0031586677227722773,-0.05381647168316832,0.9581222681188118,-0.0002547611881188118,0.00586050099009901,-0.036831375841584156,117.42819509584157,32.05508915960396,14.708970297029703,204.58463899247525,-0.0031586677227722773,-0.05381647168316832,0.9581222681188118,-0.0002547611881188118,0.00586050099009901,-0.036831375841584156,117.42819509584157,32.05508915960396,14.708970297029703,204.58463899247525,10.895362401584158,0.038075643564356436,-0.03849386138613861,0.983998811881188,-0.6520950495049505,-1.1598376237623762,1.128871287128713,105.65179724554456,86.4184311770297,-422884.0206311881,-61531.106813118815,374291437.379802,329846913.8257426,100239960.78019802,821135633.2087128,78.9469306930693,18.518415841584158,99875.0
65,69597.21188118811,-0.0033224594059405943,-0.05414618217821782,0.9575976316831684,-0.0002421168316831682,0.005868930693069307,-0.03684149108910891,117.41613569108911,32.06376242772277,14.702079207920793,204.51413072673267,-0.0033224594059405943,-0.05414618217821782,0.9575976316831684,-0.0002421168316831682,0.005868930693069307,-0.03684149108910891,117.41613569108911,32.06376242772277,14.702079207920793,204.51413072673267,10.90263368910891,0.03790495049504951,-0.03882970297029703,0.9834831683168316,-0.6513465346534653,-1.1593663366336633,1.1290099009900991,105.60886681188119,86.3833160079208,-422712.19331683166,-61506.10433168317,374139348.2138614,329712884.1980198,100199229.38613862,821518444.790099,78.91485148514852,18.51089108910891,99875.0
66,70649.73821782178,-0.0034862510891089113,-0.05447589267326733,0.9570729952475248,-0.0002294724752475247,0.005877360396039605,-0.03685160633663367,117.40407628633663,32.072435695841584,14.695188118811881,204.4436224609901,-0.0034862510891089113,-0.05447589267326733,0.9570729952475248,-0.0002294724752475247,0.005877360396039605,-0.03685160633663367,117.40407628633663,32.072435695841584,14.695188118811881,204.4436224609901,10.909904976633664,0.03773425742574257,-0.03916554455445545,0.9829675247524752,-0.6505980198019802,-1.1588950495049504,1.1291485148514853,105.56593637821781,86.34820083881188,-422540.36600247526,-61481.10185024753,373987259.04792076,329578854.570297,100158497.99207921,821901256.3714851,78.88277227722773,18.503366336633665,99875.0
67,71702.26455445544,-0.0036500427722772283,-0.05480560316831683,0.9565483588118812,-0.0002168281188118811,0.005885790099009901,-0.036861721584158416,117.39201688158415,32.081108963960396,14.688297029702971,204.37311419524752,-0.0036500427722772283,-0.05480560316831683,0.9565483588118812,-0.0002168281188118811,0.005885790099009901,-0.036861721584158416,117.39201688158415,32.081108963960396,14.688297029702971,204.37311419524752,10.917176264158416,0.037563564356435646,-0.03950138613861386,0.9824518811881188,-0.649849504950495,-1.1584237623762377,1.1292871287128714,105.52300594455446,86.31308566970297,-422368.5386881188,-61456.09936881188,373835169.8819802,329444824.94257426,100117766.59801981,822284067.9528713,78.85069306930693,18.495841584158416,99875.0
68,72754.7908910891,-0.0038138344554455453,-0.05513531366336634,0.9560237223762376,-0.00020418376237623759,0.005894219801980198,-0.03687183683168317,117.37995747683168,32.08978223207921,14.68140594059406,204.30260592950495,-0.0038138344554455453,-0.05513531366336634,0.9560237223762376,-0.00020418376237623759,0.005894219801980198,-0.03687183683168317,117.37995747683168,32.08978223207921,14.68140594059406,204.30260592950495,10.924447551683167,0.03739287128712872,-0.039837227722772275,0.9819362376237623,-0.6491009900990099,-1.1579524752475248,1.1294257425742575,105.48007551089108,86.27797050059407,-422196.7113737624,-61431.09688737624,373683080.7160396,329310795.31485146,100077035.20396039,822666879.5342574,78.81861386138614,18.488316831683168,99875.0
69,73807.31722772277,-0.003977626138613862,-0.05546502415841584,0.9554990859405941,-0.00019153940594059398,0.005902649504950496,-0.03688195207920792,117.3678980720792,32.09845550019802,14.67451485148515,204.23209766376237,-0.003977626138613862,-0.05546502415841584,0.9554990859405941,-0.00019153940594059398,0.005902649504950496,-0.03688195207920792,117.3678980720792,32.09845550019802,14.67451485148515,204.23209766376237,10.931718839207921,0.03722217821782178,-0.040173069306930695,0.9814205940594058,-0.6483524752475247,-1.1574811881188118,1.1295643564356437,105.43714507722773,86.24285533148515,-422024.88405940594,-61406.094405940596,373530991.550099,329176765.6871287,100036303.80990098,823049691.1156436,78.78653465346535,18.48079207920792,99875.0
70,74859.84356435643,-0.0041414178217821776,-0.05579473465346534,0.9549744495049505,-0.00017889504950495036,0.005911079207920792,-0.036892067326732676,117.35583866732672,32.107128768316834,14.667623762376238,204.1615893980198,-0.0041414178217821776,-0.05579473465346534,0.9549744495049505,-0.00017889504950495036,0.005911079207920792,-0.036892067326732676,117.35583866732672,32.107128768316834,14.667623762376238,204.1615893980198,10.938990126732673,0.037051485148514855,-0.040508910891089114,0.9809049504950494,-0.6476039603960395,-1.157009900990099,1.1297029702970298,105.39421464356435,86.20774016237624,-421853.0567450495,-61381.09192450495,373378902.38415843,329042736.0594059,99995572.41584158,823432502.6970297,78.75445544554455,18.473267326732675,99875.0
71,75912.36990099009,-0.0043052095049504946,-0.05612444514851485,0.9544498130693069,-0.00016625069306930686,0.0059195089108910895,-0.036902182574257425,117.34377926257426,32.115802036435646,14.660732673267328,204.09108113227722,-0.0043052095049504946,-0.05612444514851485,0.9544498130693069,-0.00016625069306930686,0.0059195089108910895,-0.036902182574257425,117.34377926257426,32.115802036435646,14.660732673267328,204.09108113227722,10.946261414257425,0.03688079207920792,-0.04084475247524753,0.9803893069306929,-0.6468554455445544,-1.156538613861386,1.129841584158416,105.35128420990098,86.17262499326732,-421681.2294306931,-61356.08944306931,373226813.21821785,328908706.4316832,99954841.02178217,823815314.2784158,78.72237623762376,18.465742574257426,99875.0
72,76964.89623762376,-0.0044690011881188116,-0.056454155643564354,0.9539251766336634,-0.00015360633663366325,0.005927938613861386,-0.03691229782178218,117.33171985782178,32.12447530455446,14.653841584158416,204.02057286653465,-0.0044690011881188116,-0.056454155643564354,0.9539251766336634,-0.00015360633663366325,0.005927938613861386,-0.03691229782178218,117.33171985782178,32.12447530455446,14.653841584158416,204.02057286653465,10.953532701782178,0.03671009900990099,-0.04118059405940594,0.9798736633663365,-0.6461069306930692,-1.1560673267326733,1.129980198019802,105.30835377623762,86.13750982415841,-421509.4021163366,-61331.086961633664,373074724.0522772,328774676.8039604,99914109.62772277,824198125.859802,78.69029702970298,18.458217821782178,99875.0
73,78017.42257425742,-0.0046327928712871285,-0.05678386613861386,0.9534005401980198,-0.00014096198019801975,0.005936368316831683,-0.03692241306930693,117.3196604530693,32.13314857267327,14.646950495049506,203.95006460079207,-0.0046327928712871285,-0.05678386613861386,0.9534005401980198,-0.00014096198019801975,0.005936368316831683,-0.03692241306930693,117.3196604530693,32.13314857267327,14.646950495049506,203.95006460079207,10.96080398930693,0.03653940594059406,-0.04151643564356436,0.9793580198019801,-0.6453584158415842,-1.1555960396039604,1.1301188118811882,105.26542334257425,86.10239465504951,-421337.57480198017,-61306.08448019802,372922634.8863366,328640647.17623764,99873378.23366337,824580937.4411881,78.65821782178217,18.45069306930693,99875.0
74,79069.94891089108,-0.0047965845544554455,-0.057113576633663364,0.9528759037623762,-0.00012831762376237614,0.005944798019801981,-0.036932528316831685,117.30760104831683,32.141821840792076,14.640059405940594,203.87955633504953,-0.0047965845544554455,-0.057113576633663364,0.9528759037623762,-0.00012831762376237614,0.005944798019801981,-0.036932528316831685,117.30760104831683,32.141821840792076,14.640059405940594,203.87955633504953,10.968075276831684,0.03636871287128713,-0.04185227722772278,0.9788423762376237,-0.644609900990099,-1.1551247524752475,1.1302574257425744,105.2224929089109,86.06727948594059,-421165.74748762377,-61281.081998762376,372770545.72039604,328506617.54851484,99832646.83960396,824963749.0225743,78.62613861386139,18.443168316831684,99875.0
75,80122.47524752475,-0.0049603762376237625,-0.05744328712871287,0.9523512673267327,-0.00011567326732673253,0.005953227722772278,-0.036942643564356434,117.29554164356435,32.15049510891089,14.633168316831684,203.80904806930695,-0.0049603762376237625,-0.05744328712871287,0.9523512673267327,-0.00011567326732673253,0.005953227722772278,-0.036942643564356434,117.29554164356435,32.15049510891089,14.633168316831684,203.80904806930695,10.975346564356435,0.0361980198019802,-0.042188118811881184,0.9783267326732672,-0.6438613861386138,-1.1546534653465346,1.1303960396039605,105.17956247524752,86.03216431683168,-420993.9201732673,-61256.07951732673,372618456.55445546,328372587.9207921,99791915.44554456,825346560.6039604,78.5940594059406,18.435643564356436,99875.0
76,81175.00158415841,-0.0051241679207920795,-0.057772997623762375,0.9518266308910891,-0.00010302891089108903,0.005961657425742574,-0.03695275881188119,117.28348223881187,32.1591683770297,14.626277227722772,203.73853980356438,-0.0051241679207920795,-0.057772997623762375,0.9518266308910891,-0.00010302891089108903,0.005961657425742574,-0.03695275881188119,117.28348223881187,32.1591683770297,14.626277227722772,203.73853980356438,10.982617851881187,0.03602732673267327,-0.0425239603960396,0.9778110891089108,-0.6431128712871287,-1.1541821782178217,1.1305346534653467,105.13663204158415,85.99704914772278,-420822.0928589109,-61231.07703589109,372466367.3885149,328238558.2930693,99751184.05148515,825729372.1853465,78.5619801980198,18.428118811881188,99875.0
77,82227.52792079207,-0.0052879596039603965,-0.05810270811881188,0.9513019944554455,-9.038455445544542e-05,0.005970087128712872,-0.03696287405940594,117.27142283405941,32.16784164514851,14.619386138613862,203.6680315378218,-0.0052879596039603965,-0.05810270811881188,0.9513019944554455,-9.038455445544542e-05,0.005970087128712872,-0.03696287405940594,117.27142283405941,32.16784164514851,14.619386138613862,203.6680315378218,10.98988913940594,0.03585663366336634,-0.04285980198019802,0.9772954455445544,-0.6423643564356435,-1.153710891089109,1.1306732673267328,105.09370160792079,85.96193397861386,-420650.26554455445,-61206.074554455445,372314278.22257423,328104528.66534656,99710452.65742575,826112183.7667327,78.52990099009901,18.42059405940594,99875.0
78,83280.05425742574,-0.0054517512871287135,-0.05843241861386138,0.950777358019802,-7.774019801980192e-05,0.005978516831683168,-0.036972989306930694,117.25936342930693,32.176514913267326,14.61249504950495,203.59752327207923,-0.0054517512871287135,-0.05843241861386138,0.950777358019802,-7.774019801980192e-05,0.005978516831683168,-0.036972989306930694,117.25936342930693,32.176514913267326,14.61249504950495,203.59752327207923,10.997160426930693,0.03568594059405941,-0.043195643564356435,0.9767798019801979,-0.6416158415841584,-1.153239603960396,1.130811881188119,105.05077117425742,85.92681880950495,-420478.438230198,-61181.0720730198,372162189.05663365,327970499.03762376,99669721.26336634,826494995.3481188,78.49782178217822,18.413069306930694,99875.0
79,84332.5805940594,-0.0056155429702970305,-0.05876212910891089,0.9502527215841584,-6.50958415841583e-05,0.0059869465346534655,-0.03698310455445545,117.24730402455445,32.18518818138614,14.60560396039604,203.52701500633665,-0.0056155429702970305,-0.05876212910891089,0.9502527215841584,-6.50958415841583e-05,0.0059869465346534655,-0.03698310455445545,117.24730402455445,32.18518818138614,14.60560396039604,203.52701500633665,11.004431714455446,0.03551524752475248,-0.04353148514851485,0.9762641584158415,-0.6408673267326732,-1.1527683168316831,1.130950495049505,105.00784074059406,85.89170364039605,-420306.6109158416,-61156.06959158416,372010099.89069307,327836469.40990096,99628989.86930694,826877806.929505,78.46574257425742,18.405544554455446,99875.0
80,85385.10693069306,-0.005779334653465346,-0.05909183960396039,0.9497280851485148,-5.2451485148514694e-05,0.005995376237623763,-0.0369932198019802,117.23524461980197,32.19386144950495,14.598712871287129,203.45650674059408,-0.005779334653465346,-0.05909183960396039,0.9497280851485148,-5.2451485148514694e-05,0.005995376237623763,-0.0369932198019802,117.23524461980197,32.19386144950495,14.598712871287129,203.45650674059408,11.011703001980198,0.03534455445544554,-0.04386732673267327,0.9757485148514851,-0.640118811881188,-1.1522970297029702,1.1310891089108912,104.96491030693069,85.85658847128713,-420134.78360148513,-61131.06711014851,371858010.7247525,327702439.7821782,99588258.47524753,827260618.5108911,78.43366336633663,18.398019801980197,99875.0
81,86437.63326732673,-0.005943126336633663,-0.0594215500990099,0.9492034487128713,-3.9807128712871084e-05,0.00600380594059406,-0.037003335049504954,117.2231852150495,32.20253471762376,14.591821782178219,203.3859984748515,-0.005943126336633663,-0.0594215500990099,0.9492034487128713,-3.9807128712871084e-05,0.00600380594059406,-0.037003335049504954,117.2231852150495,32.20253471762376,14.591821782178219,203.3859984748515,11.01897428950495,0.035173861386138615,-0.04420316831683169,0.9752328712871287,-0.6393702970297029,-1.1518257425742573,1.1312277227722773,104.92197987326732,85.82147330217822,-419962.95628712873,-61106.06462871287,371705921.5588119,327568410.1544554,99547527.08118811,827643430.0922773,78.40158415841584,18.39049504950495,99875.0
82,87490.15960396039,-0.00610691801980198,-0.0597512605940594,0.9486788122772277,-2.716277227722769e-05,0.006012235643564357,-0.0370134502970297,117.21112581029702,32.211207985742575,14.584930693069307,203.31549020910893,-0.00610691801980198,-0.0597512605940594,0.9486788122772277,-2.716277227722769e-05,0.006012235643564357,-0.0370134502970297,117.21112581029702,32.211207985742575,14.584930693069307,203.31549020910893,11.026245577029703,0.03500316831683169,-0.0445390099009901,0.9747172277227721,-0.6386217821782177,-1.1513544554455446,1.1313663366336635,104.87904943960396,85.78635813306931,-419791.1289727723,-61081.062147277225,371553832.39287126,327434380.5267327,99506795.68712871,828026241.6736634,78.36950495049506,18.382970297029704,99875.0
83,88542.68594059405,-0.006270709702970297,-0.06008097108910891,0.9481541758415841,-1.451841584158408e-05,0.006020665346534654,-0.03702356554455446,117.19906640554456,32.21988125386139,14.578039603960397,203.24498194336635,-0.006270709702970297,-0.06008097108910891,0.9481541758415841,-1.451841584158408e-05,0.006020665346534654,-0.03702356554455446,117.19906640554456,32.21988125386139,14.578039603960397,203.24498194336635,11.033516864554455,0.03483247524752475,-0.04487485148514851,0.9742015841584157,-0.6378732673267327,-1.1508831683168317,1.1315049504950496,104.83611900594059,85.7512429639604,-419619.3016584158,-61056.05966584158,371401743.2269307,327300350.8990099,99466064.2930693,828409053.2550495,78.33742574257425,18.375445544554456,99875.0
84,89595.21227722772,-0.006434501386138614,-0.06041068158415841,0.9476295394059406,-1.8740594059404696e-06,0.00602909504950495,-0.03703368079207921,117.18700700079208,32.2285545219802,14.571148514851485,203.17447367762378,-0.006434501386138614,-0.06041068158415841,0.9476295394059406,-1.8740594059404696e-06,0.00602909504950495,-0.03703368079207921,117.18700700079208,32.2285545219802,14.571148514851485,203.17447367762378,11.040788152079207,0.034661782178217825,-0.04521069306930693,0.9736859405940593,-0.6371247524752475,-1.1504118811881188,1.1316435643564358,104.79318857227723,85.71612779485149,-419447.4743440594,-61031.05718440594,371249654.0609901,327166321.27128714,99425332.8990099,828791864.8364357,78.30534653465347,18.367920792079207,99875.0
85,90647.73861386138,-0.006598293069306931,-0.06074039207920792,0.947104902970297,1.077029702970314e-05,0.006037524752475248,-0.03704379603960396,117.1749475960396,32.23722779009901,14.564257425742575,203.1039654118812,-0.006598293069306931,-0.06074039207920792,0.947104902970297,1.077029702970314e-05,0.006037524752475248,-0.03704379603960396,117.1749475960396,32.23722779009901,14.564257425742575,203.1039654118812,11.04805943960396,0.0344910891089109,-0.04554653465346535,0.9731702970297029,-0.6363762376237623,-1.1499405940594059,1.131782178217822,104.75025813861386,85.68101262574257,-419275.64702970296,-61006.054702970294,371097564.8950495,327032291.64356434,99384601.5049505,829174676.4178218,78.27326732673268,18.36039603960396,99875.0
86,91700.26495049504,-0.006762084752475248,-0.06107010257425742,0.9465802665346534,2.341465346534675e-05,0.006045954455445545,-0.03705391128712871,117.16288819128712,32.245901058217825,14.557366336633663,203.03345714613863,-0.006762084752475248,-0.06107010257425742,0.9465802665346534,2.341465346534675e-05,0.006045954455445545,-0.03705391128712871,117.16288819128712,32.245901058217825,14.557366336633663,203.03345714613863,11.055330727128712,0.03432039603960396,-0.04588237623762376,0.9726546534653464,-0.6356277227722772,-1.149469306930693,1.131920792079208,104.70732770495049,85.64589745663366,-419103.81971534656,-60981.05222153466,370945475.7291089,326898262.0158416,99343870.11089109,829557487.999208,78.24118811881188,18.352871287128714,99875.0
87,92752.79128712871,-0.006925876435643565,-0.061399813069306926,0.94605563009901,3.6059009900990145e-05,0.0060543841584158415,-0.03706402653465347,117.15082878653465,32.25457432633663,14.550475247524753,202.96294888039606,-0.006925876435643565,-0.061399813069306926,0.94605563009901,3.6059009900990145e-05,0.0060543841584158415,-0.03706402653465347,117.15082878653465,32.25457432633663,14.550475247524753,202.96294888039606,11.062602014653464,0.034149702970297034,-0.046218217821782176,0.97213900990099,-0.634879207920792,-1.1489980198019802,1.1320594059405942,104.66439727128713,85.61078228752476,-418931.9924009901,-60956.04974009901,370793386.5631683,326764232.3881188,99303138.71683168,829940299.5805941,78.20910891089109,18.345346534653466,99875.0
88,93805.31762376237,-0.007089668118811882,-0.06172952356435643,0.9455309936633663,4.8703366336633755e-05,0.006062813861386139,-0.037074141782178216,117.13876938178217,32.26324759445544,14.543584158415841,202.89244061465348,-0.007089668118811882,-0.06172952356435643,0.9455309936633663,4.8703366336633755e-05,0.006062813861386139,-0.037074141782178216,117.13876938178217,32.26324759445544,14.543584158415841,202.89244061465348,11.069873302178218,0.0339790099009901,-0.046554059405940595,0.9716233663366336,-0.6341306930693069,-1.1485267326732673,1.1321980198019803,104.62146683762376,85.57566711841584,-418760.16508663364,-60931.04725866337,370641297.3972277,326630202.76039606,99262407.32277228,830323111.1619802,78.1770297029703,18.337821782178217,99875.0
89,94857.84396039603,-0.007253459801980199,-0.062059234059405936,0.9450063572277227,6.134772277227737e-05,0.006071243564356436,-0.03708425702970297,117.1267099770297,32.271920862574255,14.536693069306931,202.8219323489109,-0.007253459801980199,-0.062059234059405936,0.9450063572277227,6.134772277227737e-05,0.006071243564356436,-0.03708425702970297,117.1267099770297,32.271920862574255,14.536693069306931,202.8219323489109,11.07714458970297,0.03380831683168317,-0.046889900990099015,0.9711077227722771,-0.6333821782178217,-1.1480554455445544,1.1323366336633665,104.5785364039604,85.54055194930693,-418588.33777227724,-60906.044777227726,370489208.2312871,326496173.13267326,99221675.92871287,830705922.7433664,78.1449504950495,18.33029702970297,99875.0
90,95910.3702970297,-0.007417251485148516,-0.06238894455445544,0.9444817207920793,7.399207920792098e-05,0.006079673267326733,-0.03709437227722772,117.11465057227723,32.28059413069307,14.52980198019802,202.75142408316833,-0.007417251485148516,-0.06238894455445544,0.9444817207920793,7.399207920792098e-05,0.006079673267326733,-0.03709437227722772,117.11465057227723,32.28059413069307,14.52980198019802,202.75142408316833,11.084415877227723,0.03363762376237624,-0.04722574257425743,0.9705920792079207,-0.6326336633663365,-1.1475841584158415,1.1324752475247526,104.53560597029703,85.50543678019802,-418416.5104579208,-60881.04229579208,370337119.06534654,326362143.5049505,99180944.53465347,831088734.3247524,78.11287128712871,18.322772277227724,99875.0
91,96962.89663366336,-0.007581043168316831,-0.06271865504950494,0.9439570843564357,8.663643564356459e-05,0.00608810297029703,-0.037104487524752476,117.10259116752475,32.28926739881188,14.52291089108911,202.68091581742576,-0.007581043168316831,-0.06271865504950494,0.9439570843564357,8.663643564356459e-05,0.00608810297029703,-0.037104487524752476,117.10259116752475,32.28926739881188,14.52291089108911,202.68091581742576,11.091687164752475,0.03346693069306931,-0.04756158415841584,0.9700764356435643,-0.6318851485148514,-1.1471128712871286,1.1326138613861387,104.49267553663366,85.4703216110891,-418244.6831435644,-60856.03981435644,370185029.89940596,326228113.8772277,99140213.14059407,831471545.9061387,78.08079207920792,18.315247524752476,99875.0
92,98015.42297029702,-0.007744834851485148,-0.06304836554455445,0.9434324479207921,9.928079207920798e-05,0.006096532673267327,-0.03711460277227723,117.09053176277227,32.29794066693069,14.516019801980198,202.61040755168318,-0.007744834851485148,-0.06304836554455445,0.9434324479207921,9.928079207920798e-05,0.006096532673267327,-0.03711460277227723,117.09053176277227,32.29794066693069,14.516019801980198,202.61040755168318,11.098958452277227,0.03329623762376238,-0.04789742574257426,0.9695607920792079,-0.6311366336633663,-1.1466415841584159,1.1327524752475249,104.4497451029703,85.4352064419802,-418072.8558292079,-60831.037332920794,370032940.7334654,326094084.2495049,99099481.74653466,831854357.4875247,78.04871287128712,18.307722772277227,99875.0
93,99067.94930693069,-0.007908626534653466,-0.06337807603960396,0.9429078114851485,0.00011192514851485159,0.006104962376237624,-0.03712471801980198,117.0784723580198,32.306613935049505,14.509128712871288,202.5398992859406,-0.007908626534653466,-0.06337807603960396,0.9429078114851485,0.00011192514851485159,0.006104962376237624,-0.03712471801980198,117.0784723580198,32.306613935049505,14.509128712871288,202.5398992859406,11.10622973980198,0.03312554455445545,-0.04823326732673268,0.9690451485148514,-0.6303881188118812,-1.146170297029703,1.132891089108911,104.40681466930693,85.4000912728713,-417901.02851485147,-60806.03485148515,369880851.56752473,325960054.6217822,99058750.35247524,832237169.0689108,78.01663366336633,18.30019801980198,99875.0
94,100120.47564356435,-0.008072418217821783,-0.06370778653465346,0.942383175049505,0.0001245695049504952,0.006113392079207921,-0.037134833267326736,117.06641295326732,32.31528720316832,14.502237623762376,202.46939102019803,-0.008072418217821783,-0.06370778653465346,0.942383175049505,0.0001245695049504952,0.006113392079207921,-0.037134833267326736,117.06641295326732,32.31528720316832,14.502237623762376,202.46939102019803,11.113501027326732,0.03295485148514851,-0.04856910891089109,0.968529504950495,-0.629639603960396,-1.14569900990099,1.1330297029702971,104.36388423564357,85.36497610376237,-417729.20120049507,-60781.03237004951,369728762.40158415,325826024.9940594,99018018.95841584,832619980.650297,77.98455445544555,18.292673267326734,99875.0
95,101173.00198019801,-0.0082362099009901,-0.06403749702970296,0.9418585386138614,0.0001372138613861388,0.006121821782178218,-0.037144948514851485,117.05435354851485,32.32396047128713,14.495346534653466,202.39888275445546,-0.0082362099009901,-0.06403749702970296,0.9418585386138614,0.0001372138613861388,0.006121821782178218,-0.037144948514851485,117.05435354851485,32.32396047128713,14.495346534653466,202.39888275445546,11.120772314851484,0.03278415841584159,-0.048904950495049504,0.9680138613861385,-0.6288910891089109,-1.1452277227722771,1.1331683168316833,104.3209538019802,85.32986093465347,-417557.3738861386,-60756.02988861386,369576673.23564357,325691995.36633664,98977287.56435643,833002792.2316831,77.95247524752475,18.285148514851485,99875.0
96,102225.52831683168,-0.008400001584158417,-0.06436720752475247,0.9413339021782178,0.0001498582178217822,0.006130251485148515,-0.03715506376237624,117.04229414376238,32.33263373940594,14.488455445544554,202.32837448871288,-0.008400001584158417,-0.06436720752475247,0.9413339021782178,0.0001498582178217822,0.006130251485148515,-0.03715506376237624,117.04229414376238,32.33263373940594,14.488455445544554,202.32837448871288,11.128043602376238,0.032613465346534656,-0.04924079207920792,0.9674982178217821,-0.6281425742574257,-1.1447564356435642,1.1333069306930694,104.27802336831682,85.29474576554455,-417385.5465717822,-60731.02740717822,369424584.069703,325557965.73861384,98936556.17029703,833385603.8130693,77.92039603960396,18.277623762376237,99875.0
97,103278.05465346534,-0.00856379326732673,-0.06469691801980199,0.9408092657425743,0.00016250257425742582,0.006138681188118812,-0.03716517900990099,117.0302347390099,32.341307007524755,14.481564356435644,202.2578662229703,-0.00856379326732673,-0.06469691801980199,0.9408092657425743,0.00016250257425742582,0.006138681188118812,-0.03716517900990099,117.0302347390099,32.341307007524755,14.481564356435644,202.2578662229703,11.13531488990099,0.03244277227722772,-0.049576633663366336,0.9669825742574256,-0.6273940594059405,-1.1442851485148515,1.1334455445544556,104.23509293465347,85.25963059643564,-417213.71925742575,-60706.024925742575,369272494.9037624,325423936.1108911,98895824.77623762,833768415.3944554,77.88831683168317,18.27009900990099,99875.0
98,104330.580990099,-0.008727584950495047,-0.06502662851485148,0.9402846293069307,0.00017514693069306943,0.0061471108910891095,-0.037175294257425745,117.01817533425742,32.34998027564357,14.474673267326732,202.18735795722773,-0.008727584950495047,-0.06502662851485148,0.9402846293069307,0.00017514693069306943,0.0061471108910891095,-0.037175294257425745,117.01817533425742,32.34998027564357,14.474673267326732,202.18735795722773,11.142586177425743,0.032272079207920794,-0.049912475247524755,0.9664669306930692,-0.6266455445544554,-1.1438138613861386,1.1335841584158417,104.1921625009901,85.22451542732674,-417041.8919430693,-60681.02244430693,369120405.73782176,325289906.4831683,98855093.38217822,834151226.9758415,77.85623762376238,18.262574257425744,99875.0
99,105383.10732673266,-0.008891376633663364,-0.06535633900990098,0.9397599928712871,0.00018779128712871304,0.006155540594059406,-0.037185409504950494,117.00611592950494,32.35865354376238,14.467782178217822,202.11684969148516,-0.008891376633663364,-0.06535633900990098,0.9397599928712871,0.00018779128712871304,0.006155540594059406,-0.037185409504950494,117.00611592950494,32.35865354376238,14.467782178217822,202.11684969148516,11.149857464950495,0.032101386138613866,-0.05024831683168317,0.9659512871287128,-0.6258970297029702,-1.1433425742574257,1.1337227722772278,104.14923206732674,85.18940025821782,-416870.0646287129,-60656.01996287129,368968316.5718812,325155876.85544556,98814361.98811881,834534038.5572277,77.82415841584158,18.255049504950495,99875.0
100,106435.63366336633,-0.009055168316831681,-0.0656860495049505,0.9392353564356436,0.00020043564356435665,0.006163970297029703,-0.03719552475247525,116.99405652475247,32.367326811881185,14.46089108910891,202.04634142574258,-0.009055168316831681,-0.0656860495049505,0.9392353564356436,0.00020043564356435665,0.006163970297029703,-0.03719552475247525,116.99405652475247,32.367326811881185,14.46089108910891,202.04634142574258,11.157128752475247,0.03193069306930693,-0.05058415841584159,0.9654356435643563,-0.6251485148514851,-1.1428712871287128,1.133861386138614,104.10630163366336,85.15428508910891,-416698.23731435643,-60631.01748143564,368816227.4059406,325021847.22772276,98773630.59405941,834916850.1386138,77.79207920792079,18.247524752475247,99875.0
101,107488.15999999999,-0.009218959999999998,-0.06601575999999999,0.93871072,0.00021308000000000004,0.006172400000000001,-0.03720564,116.98199712,32.37600008,14.454,201.97583316,-0.009218959999999998,-0.06601575999999999,0.93871072,0.00021308000000000004,0.006172400000000001,-0.03720564,116.98199712,32.37600008,14.454,201.97583316,11.16440004,0.031760000000000004,-0.05092,0.9649199999999999,-0.6244,-1.1423999999999999,1.1340000000000001,104.06337119999999,85.11916992,-416526.41,-60606.015,368664138.24,324887817.6,98732899.2,835299661.72,77.76,18.24,99875.0
102,108540.68633663365,-0.009382751683168315,-0.06634547049504949,0.9381860835643564,0.00022572435643564365,0.006180829702970297,-0.037215755247524754,116.96993771524753,32.38467334811881,14.447108910891089,201.90532489425743,-0.009382751683168315,-0.06634547049504949,0.9381860835643564,0.00022572435643564365,0.006180829702970297,-0.037215755247524754,116.96993771524753,32.38467334811881,14.447108910891089,201.90532489425743,11.171671327524752,0.031589306930693076,-0.05125584158415842,0.9644043564356435,-0.6236514851485149,-1.1419287128712872,1.1341386138613863,104.02044076633663,85.08405475089108,-416354.5826856436,-60581.012518564356,368512049.0740594,324753787.9722772,98692167.8059406,835682473.3013861,77.7279207920792,18.232475247524754,99875.0
103,109593.21267326732,-0.009546543366336632,-0.066675180990099,0.9376614471287129,0.00023836871287128726,0.006189259405940594,-0.0372258704950495,116.95787831049505,32.39334661623762,14.440217821782179,201.83481662851486,-0.009546543366336632,-0.066675180990099,0.9376614471287129,0.00023836871287128726,0.006189259405940594,-0.0372258704950495,116.95787831049505,32.39334661623762,14.440217821782179,201.83481662851486,11.178942615049504,0.03141861386138614,-0.05159168316831683,0.9638887128712871,-0.6229029702970297,-1.1414574257425742,1.1342772277227724,103.97751033267326,85.04893958178218,-416182.7553712871,-60556.01003712871,368359959.9081188,324619758.3445545,98651436.4118812,836065284.8827723,77.69584158415842,18.224950495049505,99875.0
104,110645.73900990098,-0.00971033504950495,-0.06700489148514852,0.9371368106930693,0.00025101306930693087,0.006197689108910892,-0.03723598574257426,116.94581890574257,32.402019884356434,14.433326732673267,201.76430836277228,-0.00971033504950495,-0.06700489148514852,0.9371368106930693,0.00025101306930693087,0.006197689108910892,-0.03723598574257426,116.94581890574257,32.402019884356434,14.433326732673267,201.76430836277228,11.186213902574258,0.03124792079207921,-0.05192752475247525,0.9633730693069306,-0.6221544554455445,-1.1409861386138613,1.1344158415841585,103.9345798990099,85.01382441267327,-416010.9280569307,-60531.00755569307,368207870.7421782,324485728.7168317,98610705.01782179,836448096.4641584,77.66376237623763,18.217425742574257,99875.0
105,111698.26534653464,-0.009874126732673266,-0.06733460198019801,0.9366121742574257,0.0002636574257425745,0.006206118811881188,-0.037246100990099014,116.93375950099009,32.41069315247525,14.426435643564357,201.6938000970297,-0.009874126732673266,-0.06733460198019801,0.9366121742574257,0.0002636574257425745,0.006206118811881188,-0.037246100990099014,116.93375950099009,32.41069315247525,14.426435643564357,201.6938000970297,11.19348519009901,0.03107722772277228,-0.052263366336633664,0.9628574257425742,-0.6214059405940594,-1.1405148514851484,1.1345544554455447,103.89164946534653,84.97870924356435,-415839.10074257426,-60506.005074257424,368055781.5762376,324351699.0891089,98569973.62376237,836830908.0455445,77.63168316831683,18.20990099009901,99875.0
106,112750.79168316831,-0.010037918415841583,-0.06766431247524751,0.9360875378217822,0.0002763017821782179,0.0062145485148514855,-0.03725621623762376,116.92170009623761,32.41936642059406,14.419544554455445,201.62329183128713,-0.010037918415841583,-0.06766431247524751,0.9360875378217822,0.0002763017821782179,0.0062145485148514855,-0.03725621623762376,116.92170009623761,32.41936642059406,14.419544554455445,201.62329183128713,11.200756477623763,0.030906534653465347,-0.05259920792079208,0.9623417821782178,-0.6206574257425742,-1.1400435643564355,1.1346930693069308,103.84871903168316,84.94359407445545,-415667.2734282178,-60481.00259282178,367903692.41029704,324217669.46138614,98529242.22970296,837213719.6269307,77.59960396039604,18.202376237623763,99875.0
107,113803.31801980197,-0.0102017100990099,-0.06799402297029702,0.9355629013861386,0.0002889461386138615,0.006222978217821783,-0.03726633148514852,116.90964069148515,32.42803968871287,14.412653465346535,201.55278356554456,-0.0102017100990099,-0.06799402297029702,0.9355629013861386,0.0002889461386138615,0.006222978217821783,-0.03726633148514852,116.90964069148515,32.42803968871287,14.412653465346535,201.55278356554456,11.208027765148515,0.03073584158415842,-0.052935049504950496,0.9618261386138613,-0.6199089108910891,-1.1395722772277228,1.134831683168317,103.8057885980198,84.90847890534653,-415495.4461138614,-60456.000111386136,367751603.24435645,324083639.83366334,98488510.83564356,837596531.2083168,77.56752475247525,18.194851485148515,99875.0
108,114855.84435643563,-0.010365501782178217,-0.06832373346534654,0.935038264950495,0.0003015904950495051,0.006231407920792079,-0.03727644673267327,116.89758128673267,32.436712956831684,14.405762376237623,201.48227529980198,-0.010365501782178217,-0.06832373346534654,0.935038264950495,0.0003015904950495051,0.006231407920792079,-0.03727644673267327,116.89758128673267,32.436712956831684,14.405762376237623,201.48227529980198,11.215299052673267,0.030565148514851488,-0.05327089108910891,0.9613104950495048,-0.6191603960396039,-1.13910099009901,1.134970297029703,103.76285816435643,84.87336373623762,-415323.61879950494,-60430.99762995049,367599514.0784159,323949610.2059406,98447779.44158415,837979342.789703,77.53544554455445,18.187326732673267,99875.0
109,115908.3706930693,-0.010529293465346534,-0.06865344396039604,0.9345136285148514,0.0003142348514851487,0.006239837623762377,-0.03728656198019802,116.8855218819802,32.4453862249505,14.398871287128713,201.4117670340594,-0.010529293465346534,-0.06865344396039604,0.9345136285148514,0.0003142348514851487,0.006239837623762377,-0.03728656198019802,116.8855218819802,32.4453862249505,14.398871287128713,201.4117670340594,11.22257034019802,0.030394455445544557,-0.05360673267326733,0.9607948514851484,-0.6184118811881187,-1.138629702970297,1.1351089108910892,103.71992773069307,84.83824856712872,-415151.79148514854,-60405.99514851485,367447424.9124752,323815580.5782178,98407048.04752475,838362154.3710891,77.50336633663366,18.179801980198018,99875.0
110,116960.89702970296,-0.010693085148514851,-0.06898315445544553,0.9339889920792079,0.0003268792079207923,0.006248267326732674,-0.03729667722772277,116.87346247722772,32.45405949306931,14.391980198019802,201.34125876831683,-0.010693085148514851,-0.06898315445544553,0.9339889920792079,0.0003268792079207923,0.006248267326732674,-0.03729667722772277,116.87346247722772,32.45405949306931,14.391980198019802,201.34125876831683,11.229841627722772,0.030223762376237626,-0.05394257425742574,0.960279207920792,-0.6176633663366337,-1.138158415841584,1.1352475247524754,103.6769972970297,84.8031333980198,-414979.9641707921,-60380.992667079205,367295335.74653465,323681550.95049506,98366316.65346535,838744965.9524753,77.47128712871287,18.172277227722773,99875.0
111,118013.42336633662,-0.010856876831683168,-0.06931286495049505,0.9334643556435643,0.0003395235643564357,0.00625669702970297,-0.03730679247524753,116.86140307247524,32.46273276118812,14.385089108910892,201.27075050257426,-0.010856876831683168,-0.06931286495049505,0.9334643556435643,0.0003395235643564357,0.00625669702970297,-0.03730679247524753,116.86140307247524,32.46273276118812,14.385089108910892,201.27075050257426,11.237112915247524,0.030053069306930694,-0.05427841584158416,0.9597635643564355,-0.6169148514851485,-1.1376871287128711,1.1353861386138615,103.63406686336633,84.76801822891089,-414808.1368564356,-60355.99018564356,367143246.58059406,323547521.32277226,98325585.25940594,839127777.5338614,77.43920792079209,18.164752475247525,99875.0
112,119065.94970297029,-0.011020668514851485,-0.06964257544554456,0.9329397192079207,0.0003521679207920793,0.006265126732673268,-0.037316907722772276,116.84934366772276,32.471406029306934,14.37819801980198,201.20024223683168,-0.011020668514851485,-0.06964257544554456,0.9329397192079207,0.0003521679207920793,0.006265126732673268,-0.037316907722772276,116.84934366772276,32.471406029306934,14.37819801980198,201.20024223683168,11.244384202772277,0.029882376237623763,-0.05461425742574257,0.9592479207920791,-0.6161663366336634,-1.1372158415841584,1.1355247524752476,103.59113642970297,84.73290305980198,-414636.3095420792,-60330.987704207924,366991157.4146535,323413491.6950495,98284853.86534654,839510589.1152475,77.40712871287128,18.157227722772276,99875.0
113,120118.47603960395,-0.011184460198019802,-0.06997228594059406,0.9324150827722772,0.00036481227722772293,0.006273556435643565,-0.03732702297029703,116.8372842629703,32.480079297425746,14.37130693069307,201.1297339710891,-0.011184460198019802,-0.06997228594059406,0.9324150827722772,0.00036481227722772293,0.006273556435643565,-0.03732702297029703,116.8372842629703,32.480079297425746,14.37130693069307,201.1297339710891,11.25165549029703,0.029711683168316835,-0.05495009900990099,0.9587322772277227,-0.6154178217821782,-1.1367445544554455,1.1356633663366338,103.5482059960396,84.69778789069306,-414464.48222772276,-60305.98522277228,366839068.2487129,323279462.0673267,98244122.47128713,839893400.6966337,77.3750495049505,18.149702970297028,99875.0
114,121171.00237623761,-0.01134825188118812,-0.07030199643564355,0.9318904463366336,0.00037745663366336654,0.0062819861386138615,-0.03733713821782178,116.82522485821782,32.48875256554455,14.364415841584158,201.05922570534653,-0.01134825188118812,-0.07030199643564355,0.9318904463366336,0.00037745663366336654,0.0062819861386138615,-0.03733713821782178,116.82522485821782,32.48875256554455,14.364415841584158,201.05922570534653,11.258926777821781,0.029540990099009904,-0.055285940594059405,0.9582166336633663,-0.614669306930693,-1.1362732673267326,1.13580198019802,103.50527556237624,84.66267272158416,-414292.6549133663,-60280.98274133664,366686979.08277225,323145432.439604,98203391.07722773,840276212.2780198,77.34297029702971,18.142178217821783,99875.0
115,122223.52871287128,-0.011512043564356436,-0.07063170693069307,0.93136580990099,0.00039010099009901015,0.006290415841584159,-0.037347253465346536,116.81316545346534,32.497425833663364,14.357524752475248,200.98871743960396,-0.011512043564356436,-0.07063170693069307,0.93136580990099,0.00039010099009901015,0.006290415841584159,-0.037347253465346536,116.81316545346534,32.497425833663364,14.357524752475248,200.98871743960396,11.266198065346535,0.029370297029702973,-0.055621782178217824,0.9577009900990098,-0.6139207920792079,-1.1358019801980197,1.135940594059406,103.46234512871287,84.62755755247525,-414120.8275990099,-60255.98025990099,366534889.9168317,323011402.8118812,98162659.68316832,840659023.859406,77.3108910891089,18.134653465346535,99875.0
116,123276.05504950494,-0.011675835247524753,-0.07096141742574258,0.9308411734653466,0.00040274534653465355,0.006298845544554456,-0.037357368712871285,116.80110604871287,32.506099101782176,14.350633663366336,200.91820917386138,-0.011675835247524753,-0.07096141742574258,0.9308411734653466,0.00040274534653465355,0.006298845544554456,-0.037357368712871285,116.80110604871287,32.506099101782176,14.350633663366336,200.91820917386138,11.273469352871286,0.02919960396039604,-0.05595762376237624,0.9571853465346534,-0.6131722772277227,-1.1353306930693068,1.1360792079207922,103.4194146950495,84.59244238336633,-413949.00028465345,-60230.97777846535,366382800.7508911,322877373.18415844,98121928.28910892,841041835.4407921,77.27881188118812,18.127128712871286,99875.0
117,124328.5813861386,-0.01183962693069307,-0.07129112792079208,0.930316537029703,0.00041538970297029716,0.006307275247524753,-0.03736748396039604,116.78904664396039,32.51477236990099,14.343742574257426,200.8477009081188,-0.01183962693069307,-0.07129112792079208,0.930316537029703,0.00041538970297029716,0.006307275247524753,-0.03736748396039604,116.78904664396039,32.51477236990099,14.343742574257426,200.8477009081188,11.28074064039604,0.02902891089108911,-0.056293465346534656,0.956669702970297,-0.6124237623762376,-1.134859405940594,1.1362178217821783,103.37648426138614,84.55732721425743,-413777.17297029705,-60205.975297029705,366230711.5849505,322743343.55643564,98081196.89504951,841424647.0221782,77.24673267326733,18.119603960396038,99875.0
118,125381.10772277227,-0.012003418613861384,-0.07162083841584158,0.9297919005940594,0.00042803405940594077,0.00631570495049505,-0.037377599207920796,116.77698723920791,32.5234456380198,14.336851485148514,200.77719264237624,-0.012003418613861384,-0.07162083841584158,0.9297919005940594,0.00042803405940594077,0.00631570495049505,-0.037377599207920796,116.77698723920791,32.5234456380198,14.336851485148514,200.77719264237624,11.288011927920792,0.02885821782178218,-0.05662930693069307,0.9561540594059406,-0.6116752475247524,-1.1343881188118812,1.1363564356435645,103.33355382772277,84.52221204514852,-413605.3456559406,-60180.97281559406,366078622.4190099,322609313.92871284,98040465.5009901,841807458.6035644,77.21465346534653,18.112079207920793,99875.0
119,126433.63405940593,-0.0121672102970297,-0.07195054891089109,0.9292672641584159,0.0004406784158415844,0.006324134653465346,-0.037387714455445545,116.76492783445545,32.532118906138614,14.329960396039604,200.70668437663366,-0.0121672102970297,-0.07195054891089109,0.9292672641584159,0.0004406784158415844,0.006324134653465346,-0.037387714455445545,116.76492783445545,32.532118906138614,14.329960396039604,200.70668437663366,11.295283215445544,0.02868752475247525,-0.05696514851485149,0.955638415841584,-0.6109267326732672,-1.1339168316831683,1.1364950495049506,103.2906233940594,84.4870968760396,-413433.51834158413,-60155.97033415842,365926533.2530693,322475284.3009901,97999734.10693069,842190270.1849505,77.18257425742574,18.104554455445545,99875.0
120,127486.16039603959,-0.012331001980198018,-0.07228025940594059,0.9287426277227723,0.000453322772277228,0.006332564356435644,-0.0373978297029703,116.75286842970297,32.540792174257426,14.323069306930694,200.63617611089109,-0.012331001980198018,-0.07228025940594059,0.9287426277227723,0.000453322772277228,0.006332564356435644,-0.0373978297029703,116.75286842970297,32.540792174257426,14.323069306930694,200.63617611089109,11.302554502970297,0.02851683168316832,-0.0573009900990099,0.9551227722772276,-0.6101782178217822,-1.1334455445544553,1.1366336633663368,103.24769296039604,84.4519817069307,-413261.69102722773,-60130.96785272277,365774444.0871287,322341254.6732673,97959002.71287128,842573081.7663367,77.15049504950495,18.097029702970296,99875.0
121,128538.68673267326,-0.012494793663366335,-0.07260996990099008,0.9282179912871287,0.0004659671287128714,0.006340994059405941,-0.03740794495049505,116.7408090249505,32.54946544237624,14.316178217821783,200.56566784514854,-0.012494793663366335,-0.07260996990099008,0.9282179912871287,0.0004659671287128714,0.006340994059405941,-0.03740794495049505,116.7408090249505,32.54946544237624,14.316178217821783,200.56566784514854,11.309825790495049,0.02834613861386139,-0.05763683168316832,0.9546071287128712,-0.609429702970297,-1.1329742574257424,1.136772277227723,103.20476252673267,84.41686653782178,-413089.8637128713,-60105.96537128713,365622354.9211881,322207225.04554456,97918271.31881188,842955893.3477228,77.11841584158415,18.089504950495048,99875.0
122,129591.21306930692,-0.012658585346534652,-0.0729396803960396,0.9276933548514852,0.000478611485148515,0.006349423762376238,-0.037418060198019805,116.72874962019802,32.55813871049505,14.309287128712871,200.49515957940594,-0.012658585346534652,-0.0729396803960396,0.9276933548514852,0.000478611485148515,0.006349423762376238,-0.037418060198019805,116.72874962019802,32.55813871049505,14.309287128712871,200.49515957940594,11.317097078019803,0.028175445544554457,-0.05797267326732673,0.9540914851485147,-0.6086811881188119,-1.1325029702970297,1.136910891089109,103.16183209306931,84.38175136871287,-412918.0363985149,-60080.962889851486,365470265.75524753,322073195.41782176,97877539.92475247,843338704.9291089,77.08633663366336,18.081980198019803,99875.0
123,130643.73940594058,-0.012822377029702969,-0.07326939089108911,0.9271687184158416,0.0004912558415841586,0.006357853465346535,-0.037428175445544554,116.71669021544554,32.56681197861386,14.30239603960396,200.4246513136634,-0.012822377029702969,-0.07326939089108911,0.9271687184158416,0.0004912558415841586,0.006357853465346535,-0.037428175445544554,116.71669021544554,32.56681197861386,14.30239603960396,200.4246513136634,11.324368365544554,0.028004752475247526,-0.05830851485148515,0.9535758415841583,-0.6079326732673267,-1.1320316831683168,1.1370495049504952,103.11890165940594,84.34663619960396,-412746.2090841584,-60055.96040841584,365318176.58930695,321939165.790099,97836808.53069307,843721516.5104951,77.05425742574258,18.074455445544555,99875.0
124,131696.26574257424,-0.012986168712871286,-0.07359910138613861,0.926644081980198,0.0005039001980198022,0.006366283168316832,-0.03743829069306931,116.70463081069306,32.575485246732676,14.29550495049505,200.35414304792081,-0.012986168712871286,-0.07359910138613861,0.926644081980198,0.0005039001980198022,0.006366283168316832,-0.03743829069306931,116.70463081069306,32.575485246732676,14.29550495049505,200.35414304792081,11.331639653069306,0.027834059405940595,-0.058644356435643565,0.9530601980198019,-0.6071841584158415,-1.131560396039604,1.1371881188118813,103.07597122574256,84.31152103049504,-412574.38176980196,-60030.9579269802,365166087.4233663,321805136.1623762,97796077.13663366,844104328.0918812,77.02217821782179,18.066930693069306,99875.0
125,132748.79207920792,-0.013149960396039603,-0.0739288118811881,0.9261194455445545,0.0005165445544554458,0.006374712871287129,-0.03744840594059406,116.69257140594058,32.58415851485149,14.288613861386139,200.28363478217824,-0.013149960396039603,-0.0739288118811881,0.9261194455445545,0.0005165445544554458,0.006374712871287129,-0.03744840594059406,116.69257140594058,32.58415851485149,14.288613861386139,200.28363478217824,11.33891094059406,0.027663366336633667,-0.058980198019801984,0.9525445544554455,-0.6064356435643564,-1.131089108910891,1.1373267326732674,103.0330407920792,84.27640586138614,-412402.55445544556,-60005.955445544554,365013998.2574257,321671106.5346535,97755345.74257426,844487139.6732674,76.99009900990099,18.05940594059406,99875.0
126,133801.31841584158,-0.01331375207920792,-0.07425852237623762,0.9255948091089109,0.0005291889108910892,0.006383142574257426,-0.037458521188118814,116.68051200118812,32.5928317829703,14.281722772277227,200.21312651643566,-0.01331375207920792,-0.07425852237623762,0.9255948091089109,0.0005291889108910892,0.006383142574257426,-0.037458521188118814,116.68051200118812,32.5928317829703,14.281722772277227,200.21312651643566,11.346182228118812,0.027492673267326736,-0.0593160396039604,0.952028910891089,-0.6056871287128712,-1.130617821782178,1.1374653465346536,102.99011035841583,84.24129069227723,-412230.7271410891,-59980.95296410891,364861909.09148514,321537076.9069307,97714614.34851485,844869951.2546535,76.9580198019802,18.051881188118813,99875.0
127,134853.84475247524,-0.013477543762376237,-0.07458823287128713,0.9250701726732673,0.0005418332673267328,0.006391572277227723,-0.03746863643564356,116.66845259643564,32.601505051089106,14.274831683168317,200.1426182506931,-0.013477543762376237,-0.07458823287128713,0.9250701726732673,0.0005418332673267328,0.006391572277227723,-0.03746863643564356,116.66845259643564,32.601505051089106,14.274831683168317,200.1426182506931,11.353453515643563,0.027321980198019805,-0.059651881188118816,0.9515132673267326,-0.6049386138613861,-1.1301465346534654,1.1376039603960397,102.94717992475248,84.20617552316831,-412058.8998267327,-59955.95048267327,364709819.92554456,321403047.27920794,97673882.95445545,845252762.8360395,76.92594059405941,18.044356435643564,99875.0
128,135906.3710891089,-0.013641335445544554,-0.07491794336633663,0.9245455362376238,0.0005544776237623764,0.006400001980198021,-0.03747875168316832,116.65639319168316,32.61017831920792,14.267940594059407,200.07210998495052,-0.013641335445544554,-0.07491794336633663,0.9245455362376238,0.0005544776237623764,0.006400001980198021,-0.03747875168316832,116.65639319168316,32.61017831920792,14.267940594059407,200.07210998495052,11.360724803168317,0.027151287128712873,-0.05998772277227723,0.9509976237623762,-0.604190099009901,-1.1296752475247525,1.1377425742574259,102.9042494910891,84.1710603540594,-411887.07251237624,-59930.94800123762,364557730.759604,321269017.65148515,97633151.56039605,845635574.4174258,76.89386138613861,18.036831683168316,99854.0
129,136958.89742574256,-0.01380512712871287,-0.07524765386138613,0.9240208998019802,0.00056712198019802,0.006408431683168317,-0.03748886693069307,116.64433378693069,32.61885158732673,14.261049504950496,200.00160171920794,-0.01380512712871287,-0.07524765386138613,0.9240208998019802,0.00056712198019802,0.006408431683168317,-0.03748886693069307,116.64433378693069,32.61885158732673,14.261049504950496,200.00160171920794,11.367996090693069,0.026980594059405942,-0.06032356435643564,0.9504819801980198,-0.6034415841584158,-1.1292039603960395,1.137881188118812,102.86131905742573,84.1359451849505,-411715.2451980198,-59905.94551980198,364405641.59366333,321134988.02376235,97592420.16633664,846018385.9988118,76.86178217821782,18.029306930693068,99850.0
130,138011.42376237622,-0.013968918811881188,-0.07557736435643564,0.9234962633663366,0.0005797663366336637,0.006416861386138614,-0.03749898217821782,116.63227438217821,32.62752485544554,14.254158415841584,199.93109345346537,-0.013968918811881188,-0.07557736435643564,0.9234962633663366,0.0005797663366336637,0.006416861386138614,-0.03749898217821782,116.63227438217821,32.62752485544554,14.254158415841584,199.93109345346537,11.37526737821782,0.02680990099009901,-0.06065940594059406,0.9499663366336633,-0.6026930693069307,-1.1287326732673266,1.1380198019801981,102.81838862376237,84.10083001584158,-411543.4178836634,-59880.943038366335,364253552.42772275,321000958.3960396,97551688.77227722,846401197.580198,76.82970297029703,18.021782178217823,99841.0
131,139063.95009900987,-0.014132710495049505,-0.07590707485148515,0.9229716269306931,0.000592410693069307,0.006425291089108911,-0.03750909742574258,116.62021497742573,32.636198123564355,14.247267326732674,199.8605851877228,-0.014132710495049505,-0.07590707485148515,0.9229716269306931,0.000592410693069307,0.006425291089108911,-0.03750909742574258,116.62021497742573,32.636198123564355,14.247267326732674,199.8605851877228,11.382538665742574,0.02663920792079208,-0.06099524752475247,0.9494506930693069,-0.6019445544554455,-1.1282613861386137,1.1381584158415843,102.775458190099,84.06571484673267,-411371.5905693069,-59855.94055693069,364101463.26178217,320866928.7683168,97510957.37821782,846784009.1615841,76.79762376237623,18.014257425742574,99827.0
132,140116.47643564356,-0.014296502178217822,-0.07623678534653465,0.9224469904950495,0.0006050550495049507,0.006433720792079208,-0.03751921267326733,116.60815557267327,32.64487139168317,14.240376237623764,199.79007692198022,-0.014296502178217822,-0.07623678534653465,0.9224469904950495,0.0006050550495049507,0.006433720792079208,-0.03751921267326733,116.60815557267327,32.64487139168317,14.240376237623764,199.79007692198022,11.389809953267326,0.026468514851485152,-0.06133108910891089,0.9489350495049504,-0.6011960396039604,-1.127790099009901,1.1382970297029704,102.73252775643564,84.03059967762377,-411199.7632549505,-59830.93807549505,363949374.0958416,320732899.14059407,97470225.98415841,847166820.7429703,76.76554455445545,18.006732673267326,99825.0
133,141169.00277227722,-0.014460293861386139,-0.07656649584158415,0.9219223540594059,0.0006176994059405943,0.0064421504950495055,-0.03752932792079208,116.59609616792079,32.65354465980198,14.233485148514852,199.71956865623764,-0.014460293861386139,-0.07656649584158415,0.9219223540594059,0.0006176994059405943,0.0064421504950495055,-0.03752932792079208,116.59609616792079,32.65354465980198,14.233485148514852,199.71956865623764,11.39708124079208,0.02629782178217822,-0.061666930693069305,0.9484194059405939,-0.6004475247524752,-1.127318811881188,1.1384356435643566,102.68959732277227,83.99548450851485,-411027.93594059406,-59805.9355940594,363797284.929901,320598869.51287127,97429494.590099,847549632.3243564,76.73346534653466,17.99920792079208,99817.0
134,142221.52910891088,-0.014624085544554456,-0.07689620633663366,0.9213977176237623,0.0006303437623762379,0.006450580198019803,-0.03753944316831683,116.58403676316831,32.66221792792079,14.22659405940594,199.64906039049507,-0.014624085544554456,-0.07689620633663366,0.9213977176237623,0.0006303437623762379,0.006450580198019803,-0.03753944316831683,116.58403676316831,32.66221792792079,14.22659405940594,199.64906039049507,11.404352528316831,0.02612712871287129,-0.062002772277227725,0.9479037623762375,-0.59969900990099,-1.1268475247524752,1.1385742574257427,102.6466668891089,83.96036933940594,-410856.1086262376,-59780.93311262376,363645195.7639604,320464839.8851485,97388763.1960396,847932443.9057425,76.70138613861386,17.991683168316833,99808.0
135,143274.05544554454,-0.014787877227722773,-0.07722591683168317,0.9208730811881188,0.0006429881188118815,0.006459009900990099,-0.03754955841584159,116.57197735841584,32.670891196039605,14.21970297029703,199.5785521247525,-0.014787877227722773,-0.07722591683168317,0.9208730811881188,0.0006429881188118815,0.006459009900990099,-0.03754955841584159,116.57197735841584,32.670891196039605,14.21970297029703,199.5785521247525,11.411623815841583,0.025956435643564358,-0.06233861386138614,0.9473881188118811,-0.5989504950495049,-1.1263762376237623,1.1387128712871288,102.60373645544554,83.92525417029702,-410684.2813118812,-59755.93063118812,363493106.5980198,320330810.2574257,97348031.8019802,848315255.4871287,76.66930693069307,17.984158415841584,99794.0
136,144326.5817821782,-0.01495166891089109,-0.07755562732673267,0.9203484447524752,0.0006556324752475249,0.006467439603960397,-0.037559673663366336,116.55991795366336,32.67956446415842,14.21281188118812,199.50804385900992,-0.01495166891089109,-0.07755562732673267,0.9203484447524752,0.0006556324752475249,0.006467439603960397,-0.037559673663366336,116.55991795366336,32.67956446415842,14.21281188118812,199.50804385900992,11.418895103366337,0.025785742574257427,-0.06267445544554456,0.9468724752475246,-0.5982019801980197,-1.1259049504950494,1.138851485148515,102.56080602178217,83.89013900118812,-410512.45399752475,-59730.92814975248,363341017.4320792,320196780.629703,97307300.4079208,848698067.0685148,76.63722772277228,17.976633663366336,99793.0
137,145379.10811881186,-0.015115460594059407,-0.07788533782178217,0.9198238083168316,0.0006682768316831685,0.006475869306930693,-0.03756978891089109,116.54785854891088,32.68823773227723,14.205920792079208,199.43753559326734,-0.015115460594059407,-0.07788533782178217,0.9198238083168316,0.0006682768316831685,0.006475869306930693,-0.03756978891089109,116.54785854891088,32.68823773227723,14.205920792079208,199.43753559326734,11.426166390891089,0.025615049504950495,-0.06301029702970297,0.9463568316831682,-0.5974534653465347,-1.1254336633663367,1.1389900990099011,102.51787558811881,83.85502383207921,-410340.62668316835,-59705.925668316835,363188928.2661386,320062751.0019802,97266569.01386139,849080878.649901,76.60514851485148,17.969108910891087,99784.0
138,146431.63445544554,-0.015279252277227724,-0.07821504831683168,0.9192991718811881,0.0006809211881188121,0.00648429900990099,-0.03757990415841584,116.53579914415842,32.69691100039604,14.199029702970298,199.36702732752477,-0.015279252277227724,-0.07821504831683168,0.9192991718811881,0.0006809211881188121,0.00648429900990099,-0.03757990415841584,116.53579914415842,32.69691100039604,14.199029702970298,199.36702732752477,11.433437678415842,0.025444356435643568,-0.06334613861386139,0.9458411881188118,-0.5967049504950495,-1.1249623762376237,1.1391287128712873,102.47494515445544,83.81990866297029,-410168.7993688119,-59680.92318688119,363036839.10019803,319928721.37425745,97225837.61980198,849463690.2312871,76.57306930693069,17.961584158415842,99775.0
139,147484.1607920792,-0.015443043960396037,-0.07854475881188118,0.9187745354455445,0.0006935655445544557,0.006492728712871288,-0.037590019405940596,116.52373973940594,32.705584268514855,14.192138613861387,199.2965190617822,-0.015443043960396037,-0.07854475881188118,0.9187745354455445,0.0006935655445544557,0.006492728712871288,-0.037590019405940596,116.52373973940594,32.705584268514855,14.192138613861387,199.2965190617822,11.440708965940594,0.025273663366336636,-0.0636819801980198,0.9453255445544554,-0.5959564356435643,-1.1244910891089108,1.1392673267326734,102.43201472079207,83.78479349386139,-409996.97205445543,-59655.92070544555,362884749.93425745,319794691.74653465,97185106.22574258,849846501.8126733,76.5409900990099,17.954059405940594,99775.0
140,148536.68712871286,-0.015606835643564354,-0.07887446930693068,0.918249899009901,0.0007062099009900993,0.006501158415841585,-0.037600134653465345,116.51168033465346,32.71425753663366,14.185247524752477,199.22601079603962,-0.015606835643564354,-0.07887446930693068,0.918249899009901,0.0007062099009900993,0.006501158415841585,-0.037600134653465345,116.51168033465346,32.71425753663366,14.185247524752477,199.22601079603962,11.447980253465346,0.025102970297029705,-0.06401782178217821,0.944809900990099,-0.5952079207920792,-1.124019801980198,1.1394059405940595,102.38908428712871,83.74967832475248,-409825.14474009903,-59630.9182240099,362732660.7683168,319660662.1188119,97144374.83168317,850229313.3940594,76.5089108910891,17.946534653465346,99768.0
141,149589.21346534652,-0.01577062732673267,-0.07920417980198019,0.9177252625742575,0.0007188542574257427,0.0065095881188118815,-0.0376102499009901,116.49962092990098,32.72293080475247,14.178356435643565,199.15550253029704,-0.01577062732673267,-0.07920417980198019,0.9177252625742575,0.0007188542574257427,0.0065095881188118815,-0.0376102499009901,116.49962092990098,32.72293080475247,14.178356435643565,199.15550253029704,11.4552515409901,0.024932277227722774,-0.06435366336633663,0.9442942574257425,-0.594459405940594,-1.123548514851485,1.1395445544554457,102.34615385346534,83.71456315564356,-409653.31742574257,-59605.91574257426,362580571.6023762,319526632.4910891,97103643.43762377,850612124.9754455,76.47683168316831,17.9390099009901,99753.0
142,150641.73980198018,-0.015934419009900988,-0.0795338902970297,0.9172006261386139,0.0007314986138613863,0.006518017821782179,-0.03762036514851485,116.48756152514851,32.731604072871285,14.171465346534655,199.08499426455447,-0.015934419009900988,-0.0795338902970297,0.9172006261386139,0.0007314986138613863,0.006518017821782179,-0.03762036514851485,116.48756152514851,32.731604072871285,14.171465346534655,199.08499426455447,11.462522828514851,0.024761584158415843,-0.06468950495049505,0.9437786138613861,-0.5937108910891089,-1.1230772277227723,1.1396831683168318,102.30322341980198,83.67944798653465,-409481.49011138617,-59580.913261138616,362428482.43643564,319392602.86336637,97062912.04356435,850994936.5568317,76.44475247524753,17.931485148514852,99747.0
143,151694.26613861384,-0.016098210693069305,-0.0798636007920792,0.9166759897029703,0.0007441429702970299,0.006526447524752475,-0.037630480396039605,116.47550212039603,32.7402773409901,14.164574257425743,199.0144859988119,-0.016098210693069305,-0.0798636007920792,0.9166759897029703,0.0007441429702970299,0.006526447524752475,-0.037630480396039605,116.47550212039603,32.7402773409901,14.164574257425743,199.0144859988119,11.469794116039603,0.02459089108910891,-0.06502534653465347,0.9432629702970297,-0.5929623762376237,-1.1226059405940594,1.139821782178218,102.26029298613861,83.64433281742575,-409309.6627970297,-59555.91077970297,362276393.27049506,319258573.23564357,97022180.64950494,851377748.1382178,76.41267326732674,17.923960396039604,99738.0
144,152746.79247524752,-0.016262002376237622,-0.0801933112871287,0.9161513532673267,0.0007567873267326736,0.006534877227722773,-0.03764059564356436,116.46344271564357,32.74895060910891,14.157683168316833,198.94397773306932,-0.016262002376237622,-0.0801933112871287,0.9161513532673267,0.0007567873267326736,0.006534877227722773,-0.03764059564356436,116.46344271564357,32.74895060910891,14.157683168316833,198.94397773306932,11.477065403564357,0.024420198019801984,-0.06536118811881189,0.9427473267326731,-0.5922138613861385,-1.1221346534653465,1.139960396039604,102.21736255247524,83.60921764831683,-409137.83548267325,-59530.90829826733,362124304.1045545,319124543.60792077,96981449.25544554,851760559.719604,76.38059405940594,17.916435643564355,99723.0
145,153799.31881188118,-0.01642579405940594,-0.08052302178217821,0.9156267168316832,0.0007694316831683172,0.00654330693069307,-0.03765071089108911,116.45138331089109,32.75762387722772,14.150792079207921,198.87346946732674,-0.01642579405940594,-0.08052302178217821,0.9156267168316832,0.0007694316831683172,0.00654330693069307,-0.03765071089108911,116.45138331089109,32.75762387722772,14.150792079207921,198.87346946732674,11.484336691089108,0.024249504950495052,-0.0656970297029703,0.9422316831683167,-0.5914653465346534,-1.1216633663366335,1.1400990099009902,102.17443211881188,83.57410247920792,-408966.00816831685,-59505.905816831684,361972214.93861383,318990513.980198,96940717.86138614,852143371.3009901,76.34851485148515,17.90891089108911,99713.0
146,154851.84514851484,-0.016589585742574256,-0.08085273227722772,0.9151020803960396,0.0007820760396039606,0.006551736633663367,-0.037660826138613865,116.43932390613861,32.766297145346535,14.143900990099011,198.80296120158417,-0.016589585742574256,-0.08085273227722772,0.9151020803960396,0.0007820760396039606,0.006551736633663367,-0.037660826138613865,116.43932390613861,32.766297145346535,14.143900990099011,198.80296120158417,11.49160797861386,0.02407881188118812,-0.06603287128712872,0.9417160396039603,-0.5907168316831682,-1.1211920792079209,1.1402376237623764,102.1315016851485,83.538987310099,-408794.1808539604,-59480.90333539604,361820125.77267325,318856484.3524752,96899986.46732673,852526182.8823762,76.31643564356436,17.901386138613862,99707.0
147,155904.3714851485,-0.016753377425742573,-0.08118244277227722,0.914577443960396,0.0007947203960396042,0.006560166336633664,-0.037670941386138614,116.42726450138613,32.77497041346535,14.1370099009901,198.7324529358416,-0.016753377425742573,-0.08118244277227722,0.914577443960396,0.0007947203960396042,0.006560166336633664,-0.037670941386138614,116.42726450138613,32.77497041346535,14.1370099009901,198.7324529358416,11.498879266138614,0.02390811881188119,-0.06636871287128712,0.9412003960396038,-0.5899683168316832,-1.120720792079208,1.1403762376237625,102.08857125148515,83.5038721409901,-408622.35353960394,-59455.9008539604,361668036.60673267,318722454.7247525,96859255.07326733,852908994.4637624,76.28435643564356,17.893861386138614,99697.0
148,156956.89782178216,-0.01691716910891089,-0.08151215326732672,0.9140528075247525,0.0008073647524752478,0.006568596039603961,-0.03768105663366337,116.41520509663366,32.78364368158416,14.13011881188119,198.66194467009902,-0.01691716910891089,-0.08151215326732672,0.9140528075247525,0.0008073647524752478,0.006568596039603961,-0.03768105663366337,116.41520509663366,32.78364368158416,14.13011881188119,198.66194467009902,11.506150553663366,0.02373742574257426,-0.06670455445544554,0.9406847524752474,-0.589219801980198,-1.120249504950495,1.1405148514851486,102.04564081782178,83.46875697188119,-408450.52622524754,-59430.89837252475,361515947.4407921,318588425.0970297,96818523.67920792,853291806.0451485,76.25227722772277,17.886336633663365,99686.0
149,158009.42415841582,-0.017080960792079207,-0.08184186376237623,0.9135281710891089,0.0008200091089108914,0.0065770257425742575,-0.03769117188118812,116.40314569188118,32.79231694970297,14.123227722772278,198.59143640435644,-0.017080960792079207,-0.08184186376237623,0.9135281710891089,0.0008200091089108914,0.0065770257425742575,-0.03769117188118812,116.40314569188118,32.79231694970297,14.123227722772278,198.59143640435644,11.51342184118812,0.023566732673267327,-0.06704039603960396,0.940169108910891,-0.5884712871287128,-1.119778217821782,1.1406534653465348,102.0027103841584,83.43364180277227,-408278.6989108911,-59405.89589108911,361363858.2748515,318454395.46930695,96777792.28514852,853674617.6265347,76.22019801980198,17.87881188118812,99681.0
150,159061.9504950495,-0.017244752475247524,-0.08217157425742574,0.9130035346534653,0.000832653465346535,0.006585455445544555,-0.037701287128712874,116.39108628712872,32.800990217821784,14.116336633663368,198.52092813861387,-0.017244752475247524,-0.08217157425742574,0.9130035346534653,0.000832653465346535,0.006585455445544555,-0.037701287128712874,116.39108628712872,32.800990217821784,14.116336633663368,198.52092813861387,11.520693128712871,0.0233960396039604,-0.06737623762376238,0.9396534653465346,-0.5877227722772277,-1.1193069306930692,1.140792079207921,101.95977995049505,83.39852663366337,-408106.8715965347,-59380.893409653465,361211769.1089109,318320365.84158415,96737060.89108911,854057429.2079208,76.18811881188118,17.871287128712872,99681.0
151,160114.47683168316,-0.01740854415841584,-0.08250128475247524,0.9124788982178218,0.0008452978217821784,0.006593885148514852,-0.03771140237623762,116.37902688237624,32.8096634859406,14.109445544554456,198.4504198728713,-0.01740854415841584,-0.08250128475247524,0.9124788982178218,0.0008452978217821784,0.006593885148514852,-0.03771140237623762,116.37902688237624,32.8096634859406,14.109445544554456,198.4504198728713,11.527964416237623,0.023225346534653468,-0.0677120792079208,0.9391378217821781,-0.5869742574257425,-1.1188356435643563,1.140930693069307,101.91684951683168,83.36341146455446,-407935.0442821782,-59355.89092821782,361059679.9429703,318186336.2138614,96696329.4970297,854440240.7893069,76.1560396039604,17.863762376237624,99668.0
152,161167.00316831682,-0.017572335841584158,-0.08283099524752474,0.9119542617821782,0.000857942178217822,0.006602314851485149,-0.03772151762376238,116.36696747762376,32.81833675405941,14.102554455445546,198.37991160712872,-0.017572335841584158,-0.08283099524752474,0.9119542617821782,0.000857942178217822,0.006602314851485149,-0.03772151762376238,116.36696747762376,32.81833675405941,14.102554455445546,198.37991160712872,11.535235703762377,0.023054653465346537,-0.0680479207920792,0.9386221782178217,-0.5862257425742574,-1.1183643564356436,1.1410693069306932,101.87391908316832,83.32829629544554,-407763.21696782176,-59330.88844678218,360907590.7770297,318052306.5861386,96655598.1029703,854823052.3706931,76.1239603960396,17.856237623762375,99648.0
153,162219.52950495048,-0.017736127524752475,-0.08316070574257425,0.9114296253465346,0.0008705865346534656,0.006610744554455446,-0.03773163287128713,116.35490807287128,32.827010022178214,14.095663366336634,198.30940334138614,-0.017736127524752475,-0.08316070574257425,0.9114296253465346,0.0008705865346534656,0.006610744554455446,-0.03773163287128713,116.35490807287128,32.827010022178214,14.095663366336634,198.30940334138614,11.542506991287128,0.022883960396039606,-0.06838376237623763,0.9381065346534653,-0.5854772277227722,-1.1178930693069307,1.1412079207920793,101.83098864950495,83.29318112633663,-407591.38965346536,-59305.88596534653,360755501.6110891,317918276.95841587,96614866.7089109,855205863.9520792,76.0918811881188,17.84871287128713,99637.0
154,163272.05584158414,-0.017899919207920792,-0.08349041623762377,0.9109049889108911,0.0008832308910891092,0.006619174257425743,-0.03774174811881188,116.3428486681188,32.83568329029703,14.088772277227724,198.23889507564357,-0.017899919207920792,-0.08349041623762377,0.9109049889108911,0.0008832308910891092,0.006619174257425743,-0.03774174811881188,116.3428486681188,32.83568329029703,14.088772277227724,198.23889507564357,11.549778278811882,0.022713267326732674,-0.06871960396039603,0.9375908910891089,-0.584728712871287,-1.1174217821782177,1.1413465346534655,101.78805821584157,83.25806595722773,-407419.5623391089,-59280.88348391089,360603412.4451485,317784247.33069307,96574135.3148515,855588675.5334654,76.05980198019802,17.841188118811882,99628.0
155,164324.5821782178,-0.01806371089108911,-0.08382012673267326,0.9103803524752475,0.0008958752475247526,0.00662760396039604,-0.03775186336633663,116.33078926336633,32.84435655841584,14.081881188118812,198.168386809901,-0.01806371089108911,-0.08382012673267326,0.9103803524752475,0.0008958752475247526,0.00662760396039604,-0.03775186336633663,116.33078926336633,32.84435655841584,14.081881188118812,198.168386809901,11.557049566336634,0.022542574257425743,-0.06905544554455445,0.9370752475247524,-0.5839801980198019,-1.1169504950495048,1.1414851485148516,101.74512778217822,83.22295078811881,-407247.7350247525,-59255.881002475246,360451323.27920794,317650217.70297027,96533403.92079207,855971487.1148515,76.02772277227723,17.833663366336634,99618.0
156,165377.10851485148,-0.018227502574257426,-0.08414983722772276,0.9098557160396039,0.0009085196039603962,0.006636033663366337,-0.03776197861386139,116.31872985861386,32.85302982653465,14.074990099009902,198.09787854415842,-0.018227502574257426,-0.08414983722772276,0.9098557160396039,0.0009085196039603962,0.006636033663366337,-0.03776197861386139,116.31872985861386,32.85302982653465,14.074990099009902,198.09787854415842,11.564320853861386,0.022371881188118815,-0.06939128712871287,0.936559603960396,-0.5832316831683168,-1.1164792079207921,1.1416237623762377,101.70219734851484,83.1878356190099,-407075.90771039604,-59230.8785210396,360299234.1132673,317516188.0752475,96492672.52673267,856354298.6962376,75.99564356435644,17.826138613861385,99610.0
157,166429.63485148514,-0.018391294257425743,-0.08447954772277227,0.9093310796039604,0.0009211639603960398,0.006644463366336634,-0.03777209386138614,116.30667045386139,32.861703094653464,14.06809900990099,198.02737027841584,-0.018391294257425743,-0.08447954772277227,0.9093310796039604,0.0009211639603960398,0.006644463366336634,-0.03777209386138614,116.30667045386139,32.861703094653464,14.06809900990099,198.02737027841584,11.57159214138614,0.022201188118811884,-0.06972712871287129,0.9360439603960395,-0.5824831683168317,-1.1160079207920792,1.1417623762376239,101.65926691485149,83.15272044990098,-406904.0803960396,-59205.87603960396,360147144.9473267,317382158.4475247,96451941.13267326,856737110.2776238,75.96356435643564,17.81861386138614,99601.0
158,167482.1611881188,-0.01855508594059406,-0.08480925821782177,0.9088064431683168,0.0009338083168316834,0.006652893069306931,-0.03778220910891089,116.29461104910891,32.87037636277228,14.06120792079208,197.95686201267327,-0.01855508594059406,-0.08480925821782177,0.9088064431683168,0.0009338083168316834,0.006652893069306931,-0.03778220910891089,116.29461104910891,32.87037636277228,14.06120792079208,197.95686201267327,11.578863428910891,0.022030495049504953,-0.07006297029702971,0.935528316831683,-0.5817346534653465,-1.1155366336633663,1.14190099009901,101.61633648118811,83.11760528079208,-406732.2530816832,-59180.873558168314,359995055.78138614,317248128.819802,96411209.73861386,857119921.8590099,75.93148514851485,17.811089108910892,99588.0
